2,5,1000,2,
Time_ms,Pos_X,Pos_Y,Pos_Z,Vel_X,Vel_Y,Vel_Z,Acc_X,Acc_Y,Acc_Z,Jerk_X,Jerk_Y,Jerk_Z,Lat,Long,Height,Heading,Elevation,Bank,Ang-vel_X,Ang-vel_Y,Ang-vel_Z,Ang-acc_X,Ang-acc_Y,Ang-acc_Z,Ant1_Pos_X,Ant1_Pos_Y,Ant1_Pos_Z,Ant1_Vel_X,Ant1_Vel_Y,Ant1_Vel_Z,Ant1_Acc_X,Ant1_Acc_Y,Ant1_Acc_Z,Ant1_Lat,Ant1_Long,Ant1_Height,Ant1_DOP,Ant2_Pos_X,Ant2_Pos_Y,Ant2_Pos_Z,Ant2_Vel_X,Ant2_Vel_Y,Ant2_Vel_Z,Ant2_Acc_X,Ant2_Acc_Y,Ant2_Acc_Z,Ant2_Lat,Ant2_Long,Ant2_Height,Ant2_DOP
0,6378155.0000,0.0000,0.0000,0.0000,0.0000,0.0000,0.000,0.000,0.000,0.000,0.000,0.000,0.00000000000,0.00000000000,18.0000,0.000000000,0.000000000,0.000000000,0.000000,0.000000,0.000000,0.0000,0.0000,0.0000,6378155.0000,0.0000,0.0000,0.0000,0.0000,0.0000,0.000,0.000,0.000,0.00000000000,0.00000000000,18.0000,2.218,6378155.0000,0.0000,0.0000,0.0000,0.0000,0.0000,0.000,0.000,0.000,0.00000000000,0.00000000000,18.0000,2.218
1000,6378155.0000,0.0000,0.0000,0.0000,0.0000,0.0000,0.000,0.000,0.000,0.000,0.000,0.000,0.00000000000,0.00000000000,18.0000,0.000000000,0.000000000,0.000000000,0.000000,0.000000,0.000000,0.0000,0.0000,0.0000,6378155.0000,0.0000,0.0000,0.0000,0.0000,0.0000,0.000,0.000,0.000,0.00000000000,0.00000000000,18.0000,2.218,6378155.0000,0.0000,0.0000,0.0000,0.0000,0.0000,0.000,0.000,0.000,0.00000000000,0.00000000000,18.0000,2.218
2000,6378155.0000,0.0000,0.0000,0.0000,0.0000,0.0000,0.000,0.000,0.000,0.000,0.000,0.000,0.00000000000,0.00000000000,18.0000,0.000000000,0.000000000,0.000000000,0.000000,0.000000,0.000000,0.0000,0.0000,0.0000,6378155.0000,0.0000,0.0000,0.0000,0.0000,0.0000,0.000,0.000,0.000,0.00000000000,0.00000000000,18.0000,2.218,6378155.0000,0.0000,0.0000,0.0000,0.0000,0.0000,0.000,0.000,0.000,0.00000000000,0.00000000000,18.0000,2.218
3000,6378155.0000,0.0000,0.0000,0.0000,0.0000,0.0000,0.000,0.000,0.000,0.000,0.000,0.000,0.00000000000,0.00000000000,18.0000,0.000000000,0.000000000,0.000000000,0.000000,0.000000,0.000000,0.0000,0.0000,0.0000,6378155.0000,0.0000,0.0000,0.0000,0.0000,0.0000,0.000,0.000,0.000,0.00000000000,0.00000000000,18.0000,2.218,6378155.0000,0.0000,0.0000,0.0000,0.0000,0.0000,0.000,0.000,0.000,0.00000000000,0.00000000000,18.0000,2.218
4000,6378155.0000,0.0000,0.0000,0.0000,0.0000,0.0000,0.000,0.000,0.000,0.000,0.000,0.000,0.00000000000,0.00000000000,18.0000,0.000000000,0.000000000,0.000000000,0.000000,0.000000,0.000000,0.0000,0.0000,0.0000,6378155.0000,0.0000,0.0000,0.0000,0.0000,0.0000,0.000,0.000,0.000,0.00000000000,0.00000000000,18.0000,2.218,6378155.0000,0.0000,0.0000,0.0000,0.0000,0.0000,0.000,0.000,0.000,0.00000000000,0.00000000000,18.0000,2.218
5000,6378155.0000,0.0000,0.0000,0.0000,0.0000,0.0000,0.000,0.000,0.000,0.000,0.000,0.000,0.00000000000,0.00000000000,18.0000,0.000000000,0.000000000,0.000000000,0.000000,0.000000,0.000000,0.0000,0.0000,0.0000,6378155.0000,0.0000,0.0000,0.0000,0.0000,0.0000,0.000,0.000,0.000,0.00000000000,0.00000000000,18.0000,2.217,6378155.0000,0.0000,0.0000,0.0000,0.0000,0.0000,0.000,0.000,0.000,0.00000000000,0.00000000000,18.0000,2.217
6000,6378155.0000,0.0000,0.0000,0.0000,0.0000,0.0000,0.000,0.000,0.000,0.000,0.000,0.000,0.00000000000,0.00000000000,18.0000,0.000000000,0.000000000,0.000000000,0.000000,0.000000,0.000000,0.0000,0.0000,0.0000,6378155.0000,0.0000,0.0000,0.0000,0.0000,0.0000,0.000,0.000,0.000,0.00000000000,0.00000000000,18.0000,2.217,6378155.0000,0.0000,0.0000,0.0000,0.0000,0.0000,0.000,0.000,0.000,0.00000000000,0.00000000000,18.0000,2.217
7000,6378155.0000,0.0000,0.0000,0.0000,0.0000,0.0000,0.000,0.000,0.000,0.000,0.000,0.000,0.00000000000,0.00000000000,18.0000,0.000000000,0.000000000,0.000000000,0.000000,0.000000,0.000000,0.0000,0.0000,0.0000,6378155.0000,0.0000,0.0000,0.0000,0.0000,0.0000,0.000,0.000,0.000,0.00000000000,0.00000000000,18.0000,2.217,6378155.0000,0.0000,0.0000,0.0000,0.0000,0.0000,0.000,0.000,0.000,0.00000000000,0.00000000000,18.0000,2.217
8000,6378155.0000,0.0000,0.0000,0.0000,0.0000,0.0000,0.000,0.000,0.000,0.000,0.000,0.000,0.00000000000,0.00000000000,18.0000,0.000000000,0.000000000,0.000000000,0.000000,0.000000,0.000000,0.0000,0.0000,0.0000,6378155.0000,0.0000,0.0000,0.0000,0.0000,0.0000,0.000,0.000,0.000,0.00000000000,0.00000000000,18.0000,2.217,6378155.0000,0.0000,0.0000,0.0000,0.0000,0.0000,0.000,0.000,0.000,0.00000000000,0.00000000000,18.0000,2.217
9000,6378155.0000,0.0000,0.0000,0.0000,0.0000,0.0000,0.000,0.000,0.000,0.000,0.000,0.000,0.00000000000,0.00000000000,18.0000,0.000000000,0.000000000,0.000000000,0.000000,0.000000,0.000000,0.0000,0.0000,0.0000,6378155.0000,0.0000,0.0000,0.0000,0.0000,0.0000,0.000,0.000,0.000,0.00000000000,0.00000000000,18.0000,2.217,6378155.0000,0.0000,0.0000,0.0000,0.0000,0.0000,0.000,0.000,0.000,0.00000000000,0.00000000000,18.0000,2.217
10000,6378155.0000,0.0000,0.0000,0.0000,0.0000,0.0000,0.000,0.000,0.000,0.000,0.000,0.000,0.00000000000,0.00000000000,18.0000,0.000000000,0.000000000,0.000000000,0.000000,0.000000,0.000000,0.0000,0.0000,0.0000,6378155.0000,0.0000,0.0000,0.0000,0.0000,0.0000,0.000,0.000,0.000,0.00000000000,0.00000000000,18.0000,2.217,6378155.0000,0.0000,0.0000,0.0000,0.0000,0.0000,0.000,0.000,0.000,0.00000000000,0.00000000000,18.0000,2.217
11000,6378155.0000,0.0000,0.0000,0.0000,0.0000,0.0000,0.000,0.000,0.000,0.000,0.000,0.000,0.00000000000,0.00000000000,18.0000,0.000000000,0.000000000,0.000000000,0.000000,0.000000,0.000000,0.0000,0.0000,0.0000,6378155.0000,0.0000,0.0000,0.0000,0.0000,0.0000,0.000,0.000,0.000,0.00000000000,0.00000000000,18.0000,2.217,6378155.0000,0.0000,0.0000,0.0000,0.0000,0.0000,0.000,0.000,0.000,0.00000000000,0.00000000000,18.0000,2.217
12000,6378155.0000,0.0000,0.0000,0.0000,0.0000,0.0000,0.000,0.000,0.000,0.000,0.000,0.000,0.00000000000,0.00000000000,18.0000,0.000000000,0.000000000,0.000000000,0.000000,0.000000,0.000000,0.0000,0.0000,0.0000,6378155.0000,0.0000,0.0000,0.0000,0.0000,0.0000,0.000,0.000,0.000,0.00000000000,0.00000000000,18.0000,2.217,6378155.0000,0.0000,0.0000,0.0000,0.0000,0.0000,0.000,0.000,0.000,0.00000000000,0.00000000000,18.0000,2.217
13000,6378155.0000,0.0000,0.0000,0.0000,0.0000,0.0000,0.000,0.000,0.000,0.000,0.000,0.000,0.00000000000,0.00000000000,18.0000,0.000000000,0.000000000,0.000000000,0.000000,0.000000,0.000000,0.0000,0.0000,0.0000,6378155.0000,0.0000,0.0000,0.0000,0.0000,0.0000,0.000,0.000,0.000,0.00000000000,0.00000000000,18.0000,2.217,6378155.0000,0.0000,0.0000,0.0000,0.0000,0.0000,0.000,0.000,0.000,0.00000000000,0.00000000000,18.0000,2.217
14000,6378155.0000,0.0000,0.0000,0.0000,0.0000,0.0000,0.000,0.000,0.000,0.000,0.000,0.000,0.00000000000,0.00000000000,18.0000,0.000000000,0.000000000,0.000000000,0.000000,0.000000,0.000000,0.0000,0.0000,0.0000,6378155.0000,0.0000,0.0000,0.0000,0.0000,0.0000,0.000,0.000,0.000,0.00000000000,0.00000000000,18.0000,2.217,6378155.0000,0.0000,0.0000,0.0000,0.0000,0.0000,0.000,0.000,0.000,0.00000000000,0.00000000000,18.0000,2.217
15000,6378155.0000,0.0000,0.0000,0.0000,0.0000,0.0000,0.000,0.000,0.000,0.000,0.000,0.000,0.00000000000,0.00000000000,18.0000,0.000000000,0.000000000,0.000000000,0.000000,0.000000,0.000000,0.0000,0.0000,0.0000,6378155.0000,0.0000,0.0000,0.0000,0.0000,0.0000,0.000,0.000,0.000,0.00000000000,0.00000000000,18.0000,2.217,6378155.0000,0.0000,0.0000,0.0000,0.0000,0.0000,0.000,0.000,0.000,0.00000000000,0.00000000000,18.0000,2.217
16000,6378155.0000,0.0000,0.0000,0.0000,0.0000,0.0000,0.000,0.000,0.000,0.000,0.000,0.000,0.00000000000,0.00000000000,18.0000,0.000000000,0.000000000,0.000000000,0.000000,0.000000,0.000000,0.0000,0.0000,0.0000,6378155.0000,0.0000,0.0000,0.0000,0.0000,0.0000,0.000,0.000,0.000,0.00000000000,0.00000000000,18.0000,2.217,6378155.0000,0.0000,0.0000,0.0000,0.0000,0.0000,0.000,0.000,0.000,0.00000000000,0.00000000000,18.0000,2.217
17000,6378155.0000,0.0000,0.0000,0.0000,0.0000,0.0000,0.000,0.000,0.000,0.000,0.000,0.000,0.00000000000,0.00000000000,18.0000,0.000000000,0.000000000,0.000000000,0.000000,0.000000,0.000000,0.0000,0.0000,0.0000,6378155.0000,0.0000,0.0000,0.0000,0.0000,0.0000,0.000,0.000,0.000,0.00000000000,0.00000000000,18.0000,2.217,6378155.0000,0.0000,0.0000,0.0000,0.0000,0.0000,0.000,0.000,0.000,0.00000000000,0.00000000000,18.0000,2.217
18000,6378155.0000,0.0000,0.0000,0.0000,0.0000,0.0000,0.000,0.000,0.000,0.000,0.000,0.000,0.00000000000,0.00000000000,18.0000,0.000000000,0.000000000,0.000000000,0.000000,0.000000,0.000000,0.0000,0.0000,0.0000,6378155.0000,0.0000,0.0000,0.0000,0.0000,0.0000,0.000,0.000,0.000,0.00000000000,0.00000000000,18.0000,2.217,6378155.0000,0.0000,0.0000,0.0000,0.0000,0.0000,0.000,0.000,0.000,0.00000000000,0.00000000000,18.0000,2.217
19000,6378155.0000,0.0000,0.0000,0.0000,0.0000,0.0000,0.000,0.000,0.000,0.000,0.000,0.000,0.00000000000,0.00000000000,18.0000,0.000000000,0.000000000,0.000000000,0.000000,0.000000,0.000000,0.0000,0.0000,0.0000,6378155.0000,0.0000,0.0000,0.0000,0.0000,0.0000,0.000,0.000,0.000,0.00000000000,0.00000000000,18.0000,2.217,6378155.0000,0.0000,0.0000,0.0000,0.0000,0.0000,0.000,0.000,0.000,0.00000000000,0.00000000000,18.0000,2.217
20000,6378155.0000,0.0000,0.0000,0.0000,0.0000,0.0000,0.000,0.000,0.000,0.000,0.000,0.000,0.00000000000,0.00000000000,18.0000,0.000000000,0.000000000,0.000000000,0.000000,0.000000,0.000000,0.0000,0.0000,0.0000,6378155.0000,0.0000,0.0000,0.0000,0.0000,0.0000,0.000,0.000,0.000,0.00000000000,0.00000000000,18.0000,2.217,6378155.0000,0.0000,0.0000,0.0000,0.0000,0.0000,0.000,0.000,0.000,0.00000000000,0.00000000000,18.0000,2.217
21000,6378155.0000,0.0000,0.0000,0.0000,0.0000,0.0000,0.000,0.000,0.000,0.000,0.000,0.000,0.00000000000,0.00000000000,18.0000,0.000000000,0.000000000,0.000000000,0.000000,0.000000,0.000000,0.0000,0.0000,0.0000,6378155.0000,0.0000,0.0000,0.0000,0.0000,0.0000,0.000,0.000,0.000,0.00000000000,0.00000000000,18.0000,2.217,6378155.0000,0.0000,0.0000,0.0000,0.0000,0.0000,0.000,0.000,0.000,0.00000000000,0.00000000000,18.0000,2.217
22000,6378155.0000,0.0000,0.0000,0.0000,0.0000,0.0000,0.000,0.000,0.000,0.000,0.000,0.000,0.00000000000,0.00000000000,18.0000,0.000000000,0.000000000,0.000000000,0.000000,0.000000,0.000000,0.0000,0.0000,0.0000,6378155.0000,0.0000,0.0000,0.0000,0.0000,0.0000,0.000,0.000,0.000,0.00000000000,0.00000000000,18.0000,2.217,6378155.0000,0.0000,0.0000,0.0000,0.0000,0.0000,0.000,0.000,0.000,0.00000000000,0.00000000000,18.0000,2.217
23000,6378155.0000,0.0000,0.0000,0.0000,0.0000,0.0000,0.000,0.000,0.000,0.000,0.000,0.000,0.00000000000,0.00000000000,18.0000,0.000000000,0.000000000,0.000000000,0.000000,0.000000,0.000000,0.0000,0.0000,0.0000,6378155.0000,0.0000,0.0000,0.0000,0.0000,0.0000,0.000,0.000,0.000,0.00000000000,0.00000000000,18.0000,2.217,6378155.0000,0.0000,0.0000,0.0000,0.0000,0.0000,0.000,0.000,0.000,0.00000000000,0.00000000000,18.0000,2.217
24000,6378155.0000,0.0000,0.0000,0.0000,0.0000,0.0000,0.000,0.000,0.000,0.000,0.000,0.000,0.00000000000,0.00000000000,18.0000,0.000000000,0.000000000,0.000000000,0.000000,0.000000,0.000000,0.0000,0.0000,0.0000,6378155.0000,0.0000,0.0000,0.0000,0.0000,0.0000,0.000,0.000,0.000,0.00000000000,0.00000000000,18.0000,2.217,6378155.0000,0.0000,0.0000,0.0000,0.0000,0.0000,0.000,0.000,0.000,0.00000000000,0.00000000000,18.0000,2.217
25000,6378155.0000,0.0000,0.0000,0.0000,0.0000,0.0000,0.000,0.000,0.000,0.000,0.000,0.000,0.00000000000,0.00000000000,18.0000,0.000000000,0.000000000,0.000000000,0.000000,0.000000,0.000000,0.0000,0.0000,0.0000,6378155.0000,0.0000,0.0000,0.0000,0.0000,0.0000,0.000,0.000,0.000,0.00000000000,0.00000000000,18.0000,2.217,6378155.0000,0.0000,0.0000,0.0000,0.0000,0.0000,0.000,0.000,0.000,0.00000000000,0.00000000000,18.0000,2.217
26000,6378155.0000,0.0000,0.0000,0.0000,0.0000,0.0000,0.000,0.000,0.000,0.000,0.000,0.000,0.00000000000,0.00000000000,18.0000,0.000000000,0.000000000,0.000000000,0.000000,0.000000,0.000000,0.0000,0.0000,0.0000,6378155.0000,0.0000,0.0000,0.0000,0.0000,0.0000,0.000,0.000,0.000,0.00000000000,0.00000000000,18.0000,2.217,6378155.0000,0.0000,0.0000,0.0000,0.0000,0.0000,0.000,0.000,0.000,0.00000000000,0.00000000000,18.0000,2.217
27000,6378155.0000,0.0000,0.0000,0.0000,0.0000,0.0000,0.000,0.000,0.000,0.000,0.000,0.000,0.00000000000,0.00000000000,18.0000,0.000000000,0.000000000,0.000000000,0.000000,0.000000,0.000000,0.0000,0.0000,0.0000,6378155.0000,0.0000,0.0000,0.0000,0.0000,0.0000,0.000,0.000,0.000,0.00000000000,0.00000000000,18.0000,2.217,6378155.0000,0.0000,0.0000,0.0000,0.0000,0.0000,0.000,0.000,0.000,0.00000000000,0.00000000000,18.0000,2.217
28000,6378155.0000,0.0000,0.0000,0.0000,0.0000,0.0000,0.000,0.000,0.000,0.000,0.000,0.000,0.00000000000,0.00000000000,18.0000,0.000000000,0.000000000,0.000000000,0.000000,0.000000,0.000000,0.0000,0.0000,0.0000,6378155.0000,0.0000,0.0000,0.0000,0.0000,0.0000,0.000,0.000,0.000,0.00000000000,0.00000000000,18.0000,2.217,6378155.0000,0.0000,0.0000,0.0000,0.0000,0.0000,0.000,0.000,0.000,0.00000000000,0.00000000000,18.0000,2.217
29000,6378155.0000,0.0000,0.0000,0.0000,0.0000,0.0000,0.000,0.000,0.000,0.000,0.000,0.000,0.00000000000,0.00000000000,18.0000,0.000000000,0.000000000,0.000000000,0.000000,0.000000,0.000000,0.0000,0.0000,0.0000,6378155.0000,0.0000,0.0000,0.0000,0.0000,0.0000,0.000,0.000,0.000,0.00000000000,0.00000000000,18.0000,2.216,6378155.0000,0.0000,0.0000,0.0000,0.0000,0.0000,0.000,0.000,0.000,0.00000000000,0.00000000000,18.0000,2.216
30000,6378155.0000,0.0000,0.0000,0.0000,0.0000,0.0000,0.000,0.000,0.000,0.000,0.000,0.000,0.00000000000,0.00000000000,18.0000,0.000000000,0.000000000,0.000000000,0.000000,0.000000,0.000000,0.0000,0.0000,0.0000,6378155.0000,0.0000,0.0000,0.0000,0.0000,0.0000,0.000,0.000,0.000,0.00000000000,0.00000000000,18.0000,2.216,6378155.0000,0.0000,0.0000,0.0000,0.0000,0.0000,0.000,0.000,0.000,0.00000000000,0.00000000000,18.0000,2.216
31000,6378155.0000,0.0000,0.0000,0.0000,0.0000,0.0000,0.000,0.000,0.000,0.000,0.000,0.000,0.00000000000,0.00000000000,18.0000,0.000000000,0.000000000,0.000000000,0.000000,0.000000,0.000000,0.0000,0.0000,0.0000,6378155.0000,0.0000,0.0000,0.0000,0.0000,0.0000,0.000,0.000,0.000,0.00000000000,0.00000000000,18.0000,2.216,6378155.0000,0.0000,0.0000,0.0000,0.0000,0.0000,0.000,0.000,0.000,0.00000000000,0.00000000000,18.0000,2.216
32000,6378155.0000,0.0000,0.0000,0.0000,0.0000,0.0000,0.000,0.000,0.000,0.000,0.000,0.000,0.00000000000,0.00000000000,18.0000,0.000000000,0.000000000,0.000000000,0.000000,0.000000,0.000000,0.0000,0.0000,0.0000,6378155.0000,0.0000,0.0000,0.0000,0.0000,0.0000,0.000,0.000,0.000,0.00000000000,0.00000000000,18.0000,2.216,6378155.0000,0.0000,0.0000,0.0000,0.0000,0.0000,0.000,0.000,0.000,0.00000000000,0.00000000000,18.0000,2.216
33000,6378155.0000,0.0000,0.0000,0.0000,0.0000,0.0000,0.000,0.000,0.000,0.000,0.000,0.000,0.00000000000,0.00000000000,18.0000,0.000000000,0.000000000,0.000000000,0.000000,0.000000,0.000000,0.0000,0.0000,0.0000,6378155.0000,0.0000,0.0000,0.0000,0.0000,0.0000,0.000,0.000,0.000,0.00000000000,0.00000000000,18.0000,2.216,6378155.0000,0.0000,0.0000,0.0000,0.0000,0.0000,0.000,0.000,0.000,0.00000000000,0.00000000000,18.0000,2.216
34000,6378155.0000,0.0000,0.0000,0.0000,0.0000,0.0000,0.000,0.000,0.000,0.000,0.000,0.000,0.00000000000,0.00000000000,18.0000,0.000000000,0.000000000,0.000000000,0.000000,0.000000,0.000000,0.0000,0.0000,0.0000,6378155.0000,0.0000,0.0000,0.0000,0.0000,0.0000,0.000,0.000,0.000,0.00000000000,0.00000000000,18.0000,2.216,6378155.0000,0.0000,0.0000,0.0000,0.0000,0.0000,0.000,0.000,0.000,0.00000000000,0.00000000000,18.0000,2.216
35000,6378155.0000,0.0000,0.0000,0.0000,0.0000,0.0000,0.000,0.000,0.000,0.000,0.000,0.000,0.00000000000,0.00000000000,18.0000,0.000000000,0.000000000,0.000000000,0.000000,0.000000,0.000000,0.0000,0.0000,0.0000,6378155.0000,0.0000,0.0000,0.0000,0.0000,0.0000,0.000,0.000,0.000,0.00000000000,0.00000000000,18.0000,2.216,6378155.0000,0.0000,0.0000,0.0000,0.0000,0.0000,0.000,0.000,0.000,0.00000000000,0.00000000000,18.0000,2.216
36000,6378155.0000,0.0000,0.0000,0.0000,0.0000,0.0000,0.000,0.000,0.000,0.000,0.000,0.000,0.00000000000,0.00000000000,18.0000,0.000000000,0.000000000,0.000000000,0.000000,0.000000,0.000000,0.0000,0.0000,0.0000,6378155.0000,0.0000,0.0000,0.0000,0.0000,0.0000,0.000,0.000,0.000,0.00000000000,0.00000000000,18.0000,2.216,6378155.0000,0.0000,0.0000,0.0000,0.0000,0.0000,0.000,0.000,0.000,0.00000000000,0.00000000000,18.0000,2.216
37000,6378155.0000,0.0000,0.0000,0.0000,0.0000,0.0000,0.000,0.000,0.000,0.000,0.000,0.000,0.00000000000,0.00000000000,18.0000,0.000000000,0.000000000,0.000000000,0.000000,0.000000,0.000000,0.0000,0.0000,0.0000,6378155.0000,0.0000,0.0000,0.0000,0.0000,0.0000,0.000,0.000,0.000,0.00000000000,0.00000000000,18.0000,2.216,6378155.0000,0.0000,0.0000,0.0000,0.0000,0.0000,0.000,0.000,0.000,0.00000000000,0.00000000000,18.0000,2.216
38000,6378155.0000,0.0000,0.0000,0.0000,0.0000,0.0000,0.000,0.000,0.000,0.000,0.000,0.000,0.00000000000,0.00000000000,18.0000,0.000000000,0.000000000,0.000000000,0.000000,0.000000,0.000000,0.0000,0.0000,0.0000,6378155.0000,0.0000,0.0000,0.0000,0.0000,0.0000,0.000,0.000,0.000,0.00000000000,0.00000000000,18.0000,2.216,6378155.0000,0.0000,0.0000,0.0000,0.0000,0.0000,0.000,0.000,0.000,0.00000000000,0.00000000000,18.0000,2.216
39000,6378155.0000,0.0000,0.0000,0.0000,0.0000,0.0000,0.000,0.000,0.000,0.000,0.000,0.000,0.00000000000,0.00000000000,18.0000,0.000000000,0.000000000,0.000000000,0.000000,0.000000,0.000000,0.0000,0.0000,0.0000,6378155.0000,0.0000,0.0000,0.0000,0.0000,0.0000,0.000,0.000,0.000,0.00000000000,0.00000000000,18.0000,2.216,6378155.0000,0.0000,0.0000,0.0000,0.0000,0.0000,0.000,0.000,0.000,0.00000000000,0.00000000000,18.0000,2.216
40000,6378155.0000,0.0000,0.0000,0.0000,0.0000,0.0000,0.000,0.000,0.000,0.000,0.000,0.000,0.00000000000,0.00000000000,18.0000,0.000000000,0.000000000,0.000000000,0.000000,0.000000,0.000000,0.0000,0.0000,0.0000,6378155.0000,0.0000,0.0000,0.0000,0.0000,0.0000,0.000,0.000,0.000,0.00000000000,0.00000000000,18.0000,2.216,6378155.0000,0.0000,0.0000,0.0000,0.0000,0.0000,0.000,0.000,0.000,0.00000000000,0.00000000000,18.0000,2.216
41000,6378155.0000,0.0000,0.0000,0.0000,0.0000,0.0000,0.000,0.000,0.000,0.000,0.000,0.000,0.00000000000,0.00000000000,18.0000,0.000000000,0.000000000,0.000000000,0.000000,0.000000,0.000000,0.0000,0.0000,0.0000,6378155.0000,0.0000,0.0000,0.0000,0.0000,0.0000,0.000,0.000,0.000,0.00000000000,0.00000000000,18.0000,2.216,6378155.0000,0.0000,0.0000,0.0000,0.0000,0.0000,0.000,0.000,0.000,0.00000000000,0.00000000000,18.0000,2.216
42000,6378155.0000,0.0000,0.0000,0.0000,0.0000,0.0000,0.000,0.000,0.000,0.000,0.000,0.000,0.00000000000,0.00000000000,18.0000,0.000000000,0.000000000,0.000000000,0.000000,0.000000,0.000000,0.0000,0.0000,0.0000,6378155.0000,0.0000,0.0000,0.0000,0.0000,0.0000,0.000,0.000,0.000,0.00000000000,0.00000000000,18.0000,2.216,6378155.0000,0.0000,0.0000,0.0000,0.0000,0.0000,0.000,0.000,0.000,0.00000000000,0.00000000000,18.0000,2.216
43000,6378155.0000,0.0000,0.0000,0.0000,0.0000,0.0000,0.000,0.000,0.000,0.000,0.000,0.000,0.00000000000,0.00000000000,18.0000,0.000000000,0.000000000,0.000000000,0.000000,0.000000,0.000000,0.0000,0.0000,0.0000,6378155.0000,0.0000,0.0000,0.0000,0.0000,0.0000,0.000,0.000,0.000,0.00000000000,0.00000000000,18.0000,2.216,6378155.0000,0.0000,0.0000,0.0000,0.0000,0.0000,0.000,0.000,0.000,0.00000000000,0.00000000000,18.0000,2.216
44000,6378155.0000,0.0000,0.0000,0.0000,0.0000,0.0000,0.000,0.000,0.000,0.000,0.000,0.000,0.00000000000,0.00000000000,18.0000,0.000000000,0.000000000,0.000000000,0.000000,0.000000,0.000000,0.0000,0.0000,0.0000,6378155.0000,0.0000,0.0000,0.0000,0.0000,0.0000,0.000,0.000,0.000,0.00000000000,0.00000000000,18.0000,2.216,6378155.0000,0.0000,0.0000,0.0000,0.0000,0.0000,0.000,0.000,0.000,0.00000000000,0.00000000000,18.0000,2.216
45000,6378155.0000,0.0000,0.0000,0.0000,0.0000,0.0000,0.000,0.000,0.000,0.000,0.000,0.000,0.00000000000,0.00000000000,18.0000,0.000000000,0.000000000,0.000000000,0.000000,0.000000,0.000000,0.0000,0.0000,0.0000,6378155.0000,0.0000,0.0000,0.0000,0.0000,0.0000,0.000,0.000,0.000,0.00000000000,0.00000000000,18.0000,2.216,6378155.0000,0.0000,0.0000,0.0000,0.0000,0.0000,0.000,0.000,0.000,0.00000000000,0.00000000000,18.0000,2.216
46000,6378155.0000,0.0000,0.0000,0.0000,0.0000,0.0000,0.000,0.000,0.000,0.000,0.000,0.000,0.00000000000,0.00000000000,18.0000,0.000000000,0.000000000,0.000000000,0.000000,0.000000,0.000000,0.0000,0.0000,0.0000,6378155.0000,0.0000,0.0000,0.0000,0.0000,0.0000,0.000,0.000,0.000,0.00000000000,0.00000000000,18.0000,2.216,6378155.0000,0.0000,0.0000,0.0000,0.0000,0.0000,0.000,0.000,0.000,0.00000000000,0.00000000000,18.0000,2.216
47000,6378155.0000,0.0000,0.0000,0.0000,0.0000,0.0000,0.000,0.000,0.000,0.000,0.000,0.000,0.00000000000,0.00000000000,18.0000,0.000000000,0.000000000,0.000000000,0.000000,0.000000,0.000000,0.0000,0.0000,0.0000,6378155.0000,0.0000,0.0000,0.0000,0.0000,0.0000,0.000,0.000,0.000,0.00000000000,0.00000000000,18.0000,2.216,6378155.0000,0.0000,0.0000,0.0000,0.0000,0.0000,0.000,0.000,0.000,0.00000000000,0.00000000000,18.0000,2.216
48000,6378155.0000,0.0000,0.0000,0.0000,0.0000,0.0000,0.000,0.000,0.000,0.000,0.000,0.000,0.00000000000,0.00000000000,18.0000,0.000000000,0.000000000,0.000000000,0.000000,0.000000,0.000000,0.0000,0.0000,0.0000,6378155.0000,0.0000,0.0000,0.0000,0.0000,0.0000,0.000,0.000,0.000,0.00000000000,0.00000000000,18.0000,2.216,6378155.0000,0.0000,0.0000,0.0000,0.0000,0.0000,0.000,0.000,0.000,0.00000000000,0.00000000000,18.0000,2.216
49000,6378155.0000,0.0000,0.0000,0.0000,0.0000,0.0000,0.000,0.000,0.000,0.000,0.000,0.000,0.00000000000,0.00000000000,18.0000,0.000000000,0.000000000,0.000000000,0.000000,0.000000,0.000000,0.0000,0.0000,0.0000,6378155.0000,0.0000,0.0000,0.0000,0.0000,0.0000,0.000,0.000,0.000,0.00000000000,0.00000000000,18.0000,2.216,6378155.0000,0.0000,0.0000,0.0000,0.0000,0.0000,0.000,0.000,0.000,0.00000000000,0.00000000000,18.0000,2.216
50000,6378155.0000,0.0000,0.0000,0.0000,0.0000,0.0000,0.000,0.000,0.000,0.000,0.000,0.000,0.00000000000,0.00000000000,18.0000,0.000000000,0.000000000,0.000000000,0.000000,0.000000,0.000000,0.0000,0.0000,0.0000,6378155.0000,0.0000,0.0000,0.0000,0.0000,0.0000,0.000,0.000,0.000,0.00000000000,0.00000000000,18.0000,2.216,6378155.0000,0.0000,0.0000,0.0000,0.0000,0.0000,0.000,0.000,0.000,0.00000000000,0.00000000000,18.0000,2.216
51000,6378155.0000,0.0000,0.0000,0.0000,0.0000,0.0000,0.000,0.000,0.000,0.000,0.000,0.000,0.00000000000,0.00000000000,18.0000,0.000000000,0.000000000,0.000000000,0.000000,0.000000,0.000000,0.0000,0.0000,0.0000,6378155.0000,0.0000,0.0000,0.0000,0.0000,0.0000,0.000,0.000,0.000,0.00000000000,0.00000000000,18.0000,2.216,6378155.0000,0.0000,0.0000,0.0000,0.0000,0.0000,0.000,0.000,0.000,0.00000000000,0.00000000000,18.0000,2.216
52000,6378155.0000,0.0000,0.0000,0.0000,0.0000,0.0000,0.000,0.000,0.000,0.000,0.000,0.000,0.00000000000,0.00000000000,18.0000,0.000000000,0.000000000,0.000000000,0.000000,0.000000,0.000000,0.0000,0.0000,0.0000,6378155.0000,0.0000,0.0000,0.0000,0.0000,0.0000,0.000,0.000,0.000,0.00000000000,0.00000000000,18.0000,2.216,6378155.0000,0.0000,0.0000,0.0000,0.0000,0.0000,0.000,0.000,0.000,0.00000000000,0.00000000000,18.0000,2.216
53000,6378155.0000,0.0000,0.0000,0.0000,0.0000,0.0000,0.000,0.000,0.000,0.000,0.000,0.000,0.00000000000,0.00000000000,18.0000,0.000000000,0.000000000,0.000000000,0.000000,0.000000,0.000000,0.0000,0.0000,0.0000,6378155.0000,0.0000,0.0000,0.0000,0.0000,0.0000,0.000,0.000,0.000,0.00000000000,0.00000000000,18.0000,2.215,6378155.0000,0.0000,0.0000,0.0000,0.0000,0.0000,0.000,0.000,0.000,0.00000000000,0.00000000000,18.0000,2.215
54000,6378155.0000,0.0000,0.0000,0.0000,0.0000,0.0000,0.000,0.000,0.000,0.000,0.000,0.000,0.00000000000,0.00000000000,18.0000,0.000000000,0.000000000,0.000000000,0.000000,0.000000,0.000000,0.0000,0.0000,0.0000,6378155.0000,0.0000,0.0000,0.0000,0.0000,0.0000,0.000,0.000,0.000,0.00000000000,0.00000000000,18.0000,2.215,6378155.0000,0.0000,0.0000,0.0000,0.0000,0.0000,0.000,0.000,0.000,0.00000000000,0.00000000000,18.0000,2.215
55000,6378155.0000,0.0000,0.0000,0.0000,0.0000,0.0000,0.000,0.000,0.000,0.000,0.000,0.000,0.00000000000,0.00000000000,18.0000,0.000000000,0.000000000,0.000000000,0.000000,0.000000,0.000000,0.0000,0.0000,0.0000,6378155.0000,0.0000,0.0000,0.0000,0.0000,0.0000,0.000,0.000,0.000,0.00000000000,0.00000000000,18.0000,2.215,6378155.0000,0.0000,0.0000,0.0000,0.0000,0.0000,0.000,0.000,0.000,0.00000000000,0.00000000000,18.0000,2.215
56000,6378155.0000,0.0000,0.0000,0.0000,0.0000,0.0000,0.000,0.000,0.000,0.000,0.000,0.000,0.00000000000,0.00000000000,18.0000,0.000000000,0.000000000,0.000000000,0.000000,0.000000,0.000000,0.0000,0.0000,0.0000,6378155.0000,0.0000,0.0000,0.0000,0.0000,0.0000,0.000,0.000,0.000,0.00000000000,0.00000000000,18.0000,2.215,6378155.0000,0.0000,0.0000,0.0000,0.0000,0.0000,0.000,0.000,0.000,0.00000000000,0.00000000000,18.0000,2.215
57000,6378155.0000,0.0000,0.0000,0.0000,0.0000,0.0000,0.000,0.000,0.000,0.000,0.000,0.000,0.00000000000,0.00000000000,18.0000,0.000000000,0.000000000,0.000000000,0.000000,0.000000,0.000000,0.0000,0.0000,0.0000,6378155.0000,0.0000,0.0000,0.0000,0.0000,0.0000,0.000,0.000,0.000,0.00000000000,0.00000000000,18.0000,2.215,6378155.0000,0.0000,0.0000,0.0000,0.0000,0.0000,0.000,0.000,0.000,0.00000000000,0.00000000000,18.0000,2.215
58000,6378155.0000,0.0000,0.0000,0.0000,0.0000,0.0000,0.000,0.000,0.000,0.000,0.000,0.000,0.00000000000,0.00000000000,18.0000,0.000000000,0.000000000,0.000000000,0.000000,0.000000,0.000000,0.0000,0.0000,0.0000,6378155.0000,0.0000,0.0000,0.0000,0.0000,0.0000,0.000,0.000,0.000,0.00000000000,0.00000000000,18.0000,2.215,6378155.0000,0.0000,0.0000,0.0000,0.0000,0.0000,0.000,0.000,0.000,0.00000000000,0.00000000000,18.0000,2.215
59000,6378155.0000,0.0000,0.0000,0.0000,0.0000,0.0000,0.000,0.000,0.000,0.000,0.000,0.000,0.00000000000,0.00000000000,18.0000,0.000000000,0.000000000,0.000000000,0.000000,0.000000,0.000000,0.0000,0.0000,0.0000,6378155.0000,0.0000,0.0000,0.0000,0.0000,0.0000,0.000,0.000,0.000,0.00000000000,0.00000000000,18.0000,2.215,6378155.0000,0.0000,0.0000,0.0000,0.0000,0.0000,0.000,0.000,0.000,0.00000000000,0.00000000000,18.0000,2.215
60000,6378155.0000,0.0000,0.0000,0.0000,0.0000,0.0000,0.000,0.000,0.000,0.000,0.000,0.000,0.00000000000,0.00000000000,18.0000,0.000000000,0.000000000,0.000000000,0.000000,0.000000,0.000000,0.0000,0.0000,0.0000,6378155.0000,0.0000,0.0000,0.0000,0.0000,0.0000,0.000,0.000,0.000,0.00000000000,0.00000000000,18.0000,2.215,6378155.0000,0.0000,0.0000,0.0000,0.0000,0.0000,0.000,0.000,0.000,0.00000000000,0.00000000000,18.0000,2.215
61000,6378155.0000,0.0000,0.0000,0.0000,0.0000,0.0000,0.000,0.000,0.000,0.000,0.000,0.000,0.00000000000,0.00000000000,18.0000,0.000000000,0.000000000,0.000000000,0.000000,0.000000,0.000000,0.0000,0.0000,0.0000,6378155.0000,0.0000,0.0000,0.0000,0.0000,0.0000,0.000,0.000,0.000,0.00000000000,0.00000000000,18.0000,2.215,6378155.0000,0.0000,0.0000,0.0000,0.0000,0.0000,0.000,0.000,0.000,0.00000000000,0.00000000000,18.0000,2.215
62000,6378155.0000,0.0000,0.0000,0.0000,0.0000,0.0000,0.000,0.000,0.000,0.000,0.000,0.000,0.00000000000,0.00000000000,18.0000,0.000000000,0.000000000,0.000000000,0.000000,0.000000,0.000000,0.0000,0.0000,0.0000,6378155.0000,0.0000,0.0000,0.0000,0.0000,0.0000,0.000,0.000,0.000,0.00000000000,0.00000000000,18.0000,2.215,6378155.0000,0.0000,0.0000,0.0000,0.0000,0.0000,0.000,0.000,0.000,0.00000000000,0.00000000000,18.0000,2.215
63000,6378155.0000,0.0000,0.0000,0.0000,0.0000,0.0000,0.000,0.000,0.000,0.000,0.000,0.000,0.00000000000,0.00000000000,18.0000,0.000000000,0.000000000,0.000000000,0.000000,0.000000,0.000000,0.0000,0.0000,0.0000,6378155.0000,0.0000,0.0000,0.0000,0.0000,0.0000,0.000,0.000,0.000,0.00000000000,0.00000000000,18.0000,2.215,6378155.0000,0.0000,0.0000,0.0000,0.0000,0.0000,0.000,0.000,0.000,0.00000000000,0.00000000000,18.0000,2.215
64000,6378155.0000,0.0000,0.0000,0.0000,0.0000,0.0000,0.000,0.000,0.000,0.000,0.000,0.000,0.00000000000,0.00000000000,18.0000,0.000000000,0.000000000,0.000000000,0.000000,0.000000,0.000000,0.0000,0.0000,0.0000,6378155.0000,0.0000,0.0000,0.0000,0.0000,0.0000,0.000,0.000,0.000,0.00000000000,0.00000000000,18.0000,2.215,6378155.0000,0.0000,0.0000,0.0000,0.0000,0.0000,0.000,0.000,0.000,0.00000000000,0.00000000000,18.0000,2.215
65000,6378155.0000,0.0000,0.0000,0.0000,0.0000,0.0000,0.000,0.000,0.000,0.000,0.000,0.000,0.00000000000,0.00000000000,18.0000,0.000000000,0.000000000,0.000000000,0.000000,0.000000,0.000000,0.0000,0.0000,0.0000,6378155.0000,0.0000,0.0000,0.0000,0.0000,0.0000,0.000,0.000,0.000,0.00000000000,0.00000000000,18.0000,2.215,6378155.0000,0.0000,0.0000,0.0000,0.0000,0.0000,0.000,0.000,0.000,0.00000000000,0.00000000000,18.0000,2.215
66000,6378155.0000,0.0000,0.0000,0.0000,0.0000,0.0000,0.000,0.000,0.000,0.000,0.000,0.000,0.00000000000,0.00000000000,18.0000,0.000000000,0.000000000,0.000000000,0.000000,0.000000,0.000000,0.0000,0.0000,0.0000,6378155.0000,0.0000,0.0000,0.0000,0.0000,0.0000,0.000,0.000,0.000,0.00000000000,0.00000000000,18.0000,2.215,6378155.0000,0.0000,0.0000,0.0000,0.0000,0.0000,0.000,0.000,0.000,0.00000000000,0.00000000000,18.0000,2.215
67000,6378155.0000,0.0000,0.0000,0.0000,0.0000,0.0000,0.000,0.000,0.000,0.000,0.000,0.000,0.00000000000,0.00000000000,18.0000,0.000000000,0.000000000,0.000000000,0.000000,0.000000,0.000000,0.0000,0.0000,0.0000,6378155.0000,0.0000,0.0000,0.0000,0.0000,0.0000,0.000,0.000,0.000,0.00000000000,0.00000000000,18.0000,2.215,6378155.0000,0.0000,0.0000,0.0000,0.0000,0.0000,0.000,0.000,0.000,0.00000000000,0.00000000000,18.0000,2.215
68000,6378155.0000,0.0000,0.0000,0.0000,0.0000,0.0000,0.000,0.000,0.000,0.000,0.000,0.000,0.00000000000,0.00000000000,18.0000,0.000000000,0.000000000,0.000000000,0.000000,0.000000,0.000000,0.0000,0.0000,0.0000,6378155.0000,0.0000,0.0000,0.0000,0.0000,0.0000,0.000,0.000,0.000,0.00000000000,0.00000000000,18.0000,2.215,6378155.0000,0.0000,0.0000,0.0000,0.0000,0.0000,0.000,0.000,0.000,0.00000000000,0.00000000000,18.0000,2.215
69000,6378155.0000,0.0000,0.0000,0.0000,0.0000,0.0000,0.000,0.000,0.000,0.000,0.000,0.000,0.00000000000,0.00000000000,18.0000,0.000000000,0.000000000,0.000000000,0.000000,0.000000,0.000000,0.0000,0.0000,0.0000,6378155.0000,0.0000,0.0000,0.0000,0.0000,0.0000,0.000,0.000,0.000,0.00000000000,0.00000000000,18.0000,2.215,6378155.0000,0.0000,0.0000,0.0000,0.0000,0.0000,0.000,0.000,0.000,0.00000000000,0.00000000000,18.0000,2.215
70000,6378155.0000,0.0000,0.0000,0.0000,0.0000,0.0000,0.000,0.000,0.000,0.000,0.000,0.000,0.00000000000,0.00000000000,18.0000,0.000000000,0.000000000,0.000000000,0.000000,0.000000,0.000000,0.0000,0.0000,0.0000,6378155.0000,0.0000,0.0000,0.0000,0.0000,0.0000,0.000,0.000,0.000,0.00000000000,0.00000000000,18.0000,2.215,6378155.0000,0.0000,0.0000,0.0000,0.0000,0.0000,0.000,0.000,0.000,0.00000000000,0.00000000000,18.0000,2.215
71000,6378155.0000,0.0000,0.0000,0.0000,0.0000,0.0000,0.000,0.000,0.000,0.000,0.000,0.000,0.00000000000,0.00000000000,18.0000,0.000000000,0.000000000,0.000000000,0.000000,0.000000,0.000000,0.0000,0.0000,0.0000,6378155.0000,0.0000,0.0000,0.0000,0.0000,0.0000,0.000,0.000,0.000,0.00000000000,0.00000000000,18.0000,2.215,6378155.0000,0.0000,0.0000,0.0000,0.0000,0.0000,0.000,0.000,0.000,0.00000000000,0.00000000000,18.0000,2.215
72000,6378155.0000,0.0000,0.0000,0.0000,0.0000,0.0000,0.000,0.000,0.000,0.000,0.000,0.000,0.00000000000,0.00000000000,18.0000,0.000000000,0.000000000,0.000000000,0.000000,0.000000,0.000000,0.0000,0.0000,0.0000,6378155.0000,0.0000,0.0000,0.0000,0.0000,0.0000,0.000,0.000,0.000,0.00000000000,0.00000000000,18.0000,2.215,6378155.0000,0.0000,0.0000,0.0000,0.0000,0.0000,0.000,0.000,0.000,0.00000000000,0.00000000000,18.0000,2.215
73000,6378155.0000,0.0000,0.0000,0.0000,0.0000,0.0000,0.000,0.000,0.000,0.000,0.000,0.000,0.00000000000,0.00000000000,18.0000,0.000000000,0.000000000,0.000000000,0.000000,0.000000,0.000000,0.0000,0.0000,0.0000,6378155.0000,0.0000,0.0000,0.0000,0.0000,0.0000,0.000,0.000,0.000,0.00000000000,0.00000000000,18.0000,2.215,6378155.0000,0.0000,0.0000,0.0000,0.0000,0.0000,0.000,0.000,0.000,0.00000000000,0.00000000000,18.0000,2.215
74000,6378155.0000,0.0000,0.0000,0.0000,0.0000,0.0000,0.000,0.000,0.000,0.000,0.000,0.000,0.00000000000,0.00000000000,18.0000,0.000000000,0.000000000,0.000000000,0.000000,0.000000,0.000000,0.0000,0.0000,0.0000,6378155.0000,0.0000,0.0000,0.0000,0.0000,0.0000,0.000,0.000,0.000,0.00000000000,0.00000000000,18.0000,2.215,6378155.0000,0.0000,0.0000,0.0000,0.0000,0.0000,0.000,0.000,0.000,0.00000000000,0.00000000000,18.0000,2.215
75000,6378155.0000,0.0000,0.0000,0.0000,0.0000,0.0000,0.000,0.000,0.000,0.000,0.000,0.000,0.00000000000,0.00000000000,18.0000,0.000000000,0.000000000,0.000000000,0.000000,0.000000,0.000000,0.0000,0.0000,0.0000,6378155.0000,0.0000,0.0000,0.0000,0.0000,0.0000,0.000,0.000,0.000,0.00000000000,0.00000000000,18.0000,2.215,6378155.0000,0.0000,0.0000,0.0000,0.0000,0.0000,0.000,0.000,0.000,0.00000000000,0.00000000000,18.0000,2.215
76000,6378155.0000,0.0000,0.0000,0.0000,0.0000,0.0000,0.000,0.000,0.000,0.000,0.000,0.000,0.00000000000,0.00000000000,18.0000,0.000000000,0.000000000,0.000000000,0.000000,0.000000,0.000000,0.0000,0.0000,0.0000,6378155.0000,0.0000,0.0000,0.0000,0.0000,0.0000,0.000,0.000,0.000,0.00000000000,0.00000000000,18.0000,2.215,6378155.0000,0.0000,0.0000,0.0000,0.0000,0.0000,0.000,0.000,0.000,0.00000000000,0.00000000000,18.0000,2.215
77000,6378155.0000,0.0000,0.0000,0.0000,0.0000,0.0000,0.000,0.000,0.000,0.000,0.000,0.000,0.00000000000,0.00000000000,18.0000,0.000000000,0.000000000,0.000000000,0.000000,0.000000,0.000000,0.0000,0.0000,0.0000,6378155.0000,0.0000,0.0000,0.0000,0.0000,0.0000,0.000,0.000,0.000,0.00000000000,0.00000000000,18.0000,2.214,6378155.0000,0.0000,0.0000,0.0000,0.0000,0.0000,0.000,0.000,0.000,0.00000000000,0.00000000000,18.0000,2.214
78000,6378155.0000,0.0000,0.0000,0.0000,0.0000,0.0000,0.000,0.000,0.000,0.000,0.000,0.000,0.00000000000,0.00000000000,18.0000,0.000000000,0.000000000,0.000000000,0.000000,0.000000,0.000000,0.0000,0.0000,0.0000,6378155.0000,0.0000,0.0000,0.0000,0.0000,0.0000,0.000,0.000,0.000,0.00000000000,0.00000000000,18.0000,2.214,6378155.0000,0.0000,0.0000,0.0000,0.0000,0.0000,0.000,0.000,0.000,0.00000000000,0.00000000000,18.0000,2.214
79000,6378155.0000,0.0000,0.0000,0.0000,0.0000,0.0000,0.000,0.000,0.000,0.000,0.000,0.000,0.00000000000,0.00000000000,18.0000,0.000000000,0.000000000,0.000000000,0.000000,0.000000,0.000000,0.0000,0.0000,0.0000,6378155.0000,0.0000,0.0000,0.0000,0.0000,0.0000,0.000,0.000,0.000,0.00000000000,0.00000000000,18.0000,2.214,6378155.0000,0.0000,0.0000,0.0000,0.0000,0.0000,0.000,0.000,0.000,0.00000000000,0.00000000000,18.0000,2.214
80000,6378155.0000,0.0000,0.0000,0.0000,0.0000,0.0000,0.000,0.000,0.000,0.000,0.000,0.000,0.00000000000,0.00000000000,18.0000,0.000000000,0.000000000,0.000000000,0.000000,0.000000,0.000000,0.0000,0.0000,0.0000,6378155.0000,0.0000,0.0000,0.0000,0.0000,0.0000,0.000,0.000,0.000,0.00000000000,0.00000000000,18.0000,2.214,6378155.0000,0.0000,0.0000,0.0000,0.0000,0.0000,0.000,0.000,0.000,0.00000000000,0.00000000000,18.0000,2.214
81000,6378155.0000,0.0000,0.0000,0.0000,0.0000,0.0000,0.000,0.000,0.000,0.000,0.000,0.000,0.00000000000,0.00000000000,18.0000,0.000000000,0.000000000,0.000000000,0.000000,0.000000,0.000000,0.0000,0.0000,0.0000,6378155.0000,0.0000,0.0000,0.0000,0.0000,0.0000,0.000,0.000,0.000,0.00000000000,0.00000000000,18.0000,2.214,6378155.0000,0.0000,0.0000,0.0000,0.0000,0.0000,0.000,0.000,0.000,0.00000000000,0.00000000000,18.0000,2.214
82000,6378155.0000,0.0000,0.0000,0.0000,0.0000,0.0000,0.000,0.000,0.000,0.000,0.000,0.000,0.00000000000,0.00000000000,18.0000,0.000000000,0.000000000,0.000000000,0.000000,0.000000,0.000000,0.0000,0.0000,0.0000,6378155.0000,0.0000,0.0000,0.0000,0.0000,0.0000,0.000,0.000,0.000,0.00000000000,0.00000000000,18.0000,2.214,6378155.0000,0.0000,0.0000,0.0000,0.0000,0.0000,0.000,0.000,0.000,0.00000000000,0.00000000000,18.0000,2.214
83000,6378155.0000,0.0000,0.0000,0.0000,0.0000,0.0000,0.000,0.000,0.000,0.000,0.000,0.000,0.00000000000,0.00000000000,18.0000,0.000000000,0.000000000,0.000000000,0.000000,0.000000,0.000000,0.0000,0.0000,0.0000,6378155.0000,0.0000,0.0000,0.0000,0.0000,0.0000,0.000,0.000,0.000,0.00000000000,0.00000000000,18.0000,2.214,6378155.0000,0.0000,0.0000,0.0000,0.0000,0.0000,0.000,0.000,0.000,0.00000000000,0.00000000000,18.0000,2.214
84000,6378155.0000,0.0000,0.0000,0.0000,0.0000,0.0000,0.000,0.000,0.000,0.000,0.000,0.000,0.00000000000,0.00000000000,18.0000,0.000000000,0.000000000,0.000000000,0.000000,0.000000,0.000000,0.0000,0.0000,0.0000,6378155.0000,0.0000,0.0000,0.0000,0.0000,0.0000,0.000,0.000,0.000,0.00000000000,0.00000000000,18.0000,2.214,6378155.0000,0.0000,0.0000,0.0000,0.0000,0.0000,0.000,0.000,0.000,0.00000000000,0.00000000000,18.0000,2.214
85000,6378155.0000,0.0000,0.0000,0.0000,0.0000,0.0000,0.000,0.000,0.000,0.000,0.000,0.000,0.00000000000,0.00000000000,18.0000,0.000000000,0.000000000,0.000000000,0.000000,0.000000,0.000000,0.0000,0.0000,0.0000,6378155.0000,0.0000,0.0000,0.0000,0.0000,0.0000,0.000,0.000,0.000,0.00000000000,0.00000000000,18.0000,2.214,6378155.0000,0.0000,0.0000,0.0000,0.0000,0.0000,0.000,0.000,0.000,0.00000000000,0.00000000000,18.0000,2.214
86000,6378155.0000,0.0000,0.0000,0.0000,0.0000,0.0000,0.000,0.000,0.000,0.000,0.000,0.000,0.00000000000,0.00000000000,18.0000,0.000000000,0.000000000,0.000000000,0.000000,0.000000,0.000000,0.0000,0.0000,0.0000,6378155.0000,0.0000,0.0000,0.0000,0.0000,0.0000,0.000,0.000,0.000,0.00000000000,0.00000000000,18.0000,2.214,6378155.0000,0.0000,0.0000,0.0000,0.0000,0.0000,0.000,0.000,0.000,0.00000000000,0.00000000000,18.0000,2.214
87000,6378155.0000,0.0000,0.0000,0.0000,0.0000,0.0000,0.000,0.000,0.000,0.000,0.000,0.000,0.00000000000,0.00000000000,18.0000,0.000000000,0.000000000,0.000000000,0.000000,0.000000,0.000000,0.0000,0.0000,0.0000,6378155.0000,0.0000,0.0000,0.0000,0.0000,0.0000,0.000,0.000,0.000,0.00000000000,0.00000000000,18.0000,2.214,6378155.0000,0.0000,0.0000,0.0000,0.0000,0.0000,0.000,0.000,0.000,0.00000000000,0.00000000000,18.0000,2.214
88000,6378155.0000,0.0000,0.0000,0.0000,0.0000,0.0000,0.000,0.000,0.000,0.000,0.000,0.000,0.00000000000,0.00000000000,18.0000,0.000000000,0.000000000,0.000000000,0.000000,0.000000,0.000000,0.0000,0.0000,0.0000,6378155.0000,0.0000,0.0000,0.0000,0.0000,0.0000,0.000,0.000,0.000,0.00000000000,0.00000000000,18.0000,2.214,6378155.0000,0.0000,0.0000,0.0000,0.0000,0.0000,0.000,0.000,0.000,0.00000000000,0.00000000000,18.0000,2.214
89000,6378155.0000,0.0000,0.0000,0.0000,0.0000,0.0000,0.000,0.000,0.000,0.000,0.000,0.000,0.00000000000,0.00000000000,18.0000,0.000000000,0.000000000,0.000000000,0.000000,0.000000,0.000000,0.0000,0.0000,0.0000,6378155.0000,0.0000,0.0000,0.0000,0.0000,0.0000,0.000,0.000,0.000,0.00000000000,0.00000000000,18.0000,2.214,6378155.0000,0.0000,0.0000,0.0000,0.0000,0.0000,0.000,0.000,0.000,0.00000000000,0.00000000000,18.0000,2.214
90000,6378155.0000,0.0000,0.0000,0.0000,0.0000,0.0000,0.000,0.000,0.000,0.000,0.000,0.000,0.00000000000,0.00000000000,18.0000,0.000000000,0.000000000,0.000000000,0.000000,0.000000,0.000000,0.0000,0.0000,0.0000,6378155.0000,0.0000,0.0000,0.0000,0.0000,0.0000,0.000,0.000,0.000,0.00000000000,0.00000000000,18.0000,2.214,6378155.0000,0.0000,0.0000,0.0000,0.0000,0.0000,0.000,0.000,0.000,0.00000000000,0.00000000000,18.0000,2.214
91000,6378155.0000,0.0000,0.0000,0.0000,0.0000,0.0000,0.000,0.000,0.000,0.000,0.000,0.000,0.00000000000,0.00000000000,18.0000,0.000000000,0.000000000,0.000000000,0.000000,0.000000,0.000000,0.0000,0.0000,0.0000,6378155.0000,0.0000,0.0000,0.0000,0.0000,0.0000,0.000,0.000,0.000,0.00000000000,0.00000000000,18.0000,2.214,6378155.0000,0.0000,0.0000,0.0000,0.0000,0.0000,0.000,0.000,0.000,0.00000000000,0.00000000000,18.0000,2.214
92000,6378155.0000,0.0000,0.0000,0.0000,0.0000,0.0000,0.000,0.000,0.000,0.000,0.000,0.000,0.00000000000,0.00000000000,18.0000,0.000000000,0.000000000,0.000000000,0.000000,0.000000,0.000000,0.0000,0.0000,0.0000,6378155.0000,0.0000,0.0000,0.0000,0.0000,0.0000,0.000,0.000,0.000,0.00000000000,0.00000000000,18.0000,2.214,6378155.0000,0.0000,0.0000,0.0000,0.0000,0.0000,0.000,0.000,0.000,0.00000000000,0.00000000000,18.0000,2.214
93000,6378155.0000,0.0000,0.0000,0.0000,0.0000,0.0000,0.000,0.000,0.000,0.000,0.000,0.000,0.00000000000,0.00000000000,18.0000,0.000000000,0.000000000,0.000000000,0.000000,0.000000,0.000000,0.0000,0.0000,0.0000,6378155.0000,0.0000,0.0000,0.0000,0.0000,0.0000,0.000,0.000,0.000,0.00000000000,0.00000000000,18.0000,2.214,6378155.0000,0.0000,0.0000,0.0000,0.0000,0.0000,0.000,0.000,0.000,0.00000000000,0.00000000000,18.0000,2.214
94000,6378155.0000,0.0000,0.0000,0.0000,0.0000,0.0000,0.000,0.000,0.000,0.000,0.000,0.000,0.00000000000,0.00000000000,18.0000,0.000000000,0.000000000,0.000000000,0.000000,0.000000,0.000000,0.0000,0.0000,0.0000,6378155.0000,0.0000,0.0000,0.0000,0.0000,0.0000,0.000,0.000,0.000,0.00000000000,0.00000000000,18.0000,2.214,6378155.0000,0.0000,0.0000,0.0000,0.0000,0.0000,0.000,0.000,0.000,0.00000000000,0.00000000000,18.0000,2.214
95000,6378155.0000,0.0000,0.0000,0.0000,0.0000,0.0000,0.000,0.000,0.000,0.000,0.000,0.000,0.00000000000,0.00000000000,18.0000,0.000000000,0.000000000,0.000000000,0.000000,0.000000,0.000000,0.0000,0.0000,0.0000,6378155.0000,0.0000,0.0000,0.0000,0.0000,0.0000,0.000,0.000,0.000,0.00000000000,0.00000000000,18.0000,2.214,6378155.0000,0.0000,0.0000,0.0000,0.0000,0.0000,0.000,0.000,0.000,0.00000000000,0.00000000000,18.0000,2.214
96000,6378155.0000,0.0000,0.0000,0.0000,0.0000,0.0000,0.000,0.000,0.000,0.000,0.000,0.000,0.00000000000,0.00000000000,18.0000,0.000000000,0.000000000,0.000000000,0.000000,0.000000,0.000000,0.0000,0.0000,0.0000,6378155.0000,0.0000,0.0000,0.0000,0.0000,0.0000,0.000,0.000,0.000,0.00000000000,0.00000000000,18.0000,2.214,6378155.0000,0.0000,0.0000,0.0000,0.0000,0.0000,0.000,0.000,0.000,0.00000000000,0.00000000000,18.0000,2.214
97000,6378155.0000,0.0000,0.0000,0.0000,0.0000,0.0000,0.000,0.000,0.000,0.000,0.000,0.000,0.00000000000,0.00000000000,18.0000,0.000000000,0.000000000,0.000000000,0.000000,0.000000,0.000000,0.0000,0.0000,0.0000,6378155.0000,0.0000,0.0000,0.0000,0.0000,0.0000,0.000,0.000,0.000,0.00000000000,0.00000000000,18.0000,2.214,6378155.0000,0.0000,0.0000,0.0000,0.0000,0.0000,0.000,0.000,0.000,0.00000000000,0.00000000000,18.0000,2.214
98000,6378155.0000,0.0000,0.0000,0.0000,0.0000,0.0000,0.000,0.000,0.000,0.000,0.000,0.000,0.00000000000,0.00000000000,18.0000,0.000000000,0.000000000,0.000000000,0.000000,0.000000,0.000000,0.0000,0.0000,0.0000,6378155.0000,0.0000,0.0000,0.0000,0.0000,0.0000,0.000,0.000,0.000,0.00000000000,0.00000000000,18.0000,2.214,6378155.0000,0.0000,0.0000,0.0000,0.0000,0.0000,0.000,0.000,0.000,0.00000000000,0.00000000000,18.0000,2.214
99000,6378155.0000,0.0000,0.0000,0.0000,0.0000,0.0000,0.000,0.000,0.000,0.000,0.000,0.000,0.00000000000,0.00000000000,18.0000,0.000000000,0.000000000,0.000000000,0.000000,0.000000,0.000000,0.0000,0.0000,0.0000,6378155.0000,0.0000,0.0000,0.0000,0.0000,0.0000,0.000,0.000,0.000,0.00000000000,0.00000000000,18.0000,2.214,6378155.0000,0.0000,0.0000,0.0000,0.0000,0.0000,0.000,0.000,0.000,0.00000000000,0.00000000000,18.0000,2.214
100000,6378155.0000,0.0000,0.0000,0.0000,0.0000,0.0000,0.000,0.000,0.000,0.000,0.000,0.000,0.00000000000,0.00000000000,18.0000,0.000000000,0.000000000,0.000000000,0.000000,0.000000,0.000000,0.0000,0.0000,0.0000,6378155.0000,0.0000,0.0000,0.0000,0.0000,0.0000,0.000,0.000,0.000,0.00000000000,0.00000000000,18.0000,2.214,6378155.0000,0.0000,0.0000,0.0000,0.0000,0.0000,0.000,0.000,0.000,0.00000000000,0.00000000000,18.0000,2.214
101000,6378155.0000,0.0000,0.0000,0.0000,0.0000,0.0000,0.000,0.000,0.000,0.000,0.000,0.000,0.00000000000,0.00000000000,18.0000,0.000000000,0.000000000,0.000000000,0.000000,0.000000,0.000000,0.0000,0.0000,0.0000,6378155.0000,0.0000,0.0000,0.0000,0.0000,0.0000,0.000,0.000,0.000,0.00000000000,0.00000000000,18.0000,2.214,6378155.0000,0.0000,0.0000,0.0000,0.0000,0.0000,0.000,0.000,0.000,0.00000000000,0.00000000000,18.0000,2.214
102000,6378155.0000,0.0000,0.0000,0.0000,0.0000,0.0000,0.000,0.000,0.000,0.000,0.000,0.000,0.00000000000,0.00000000000,18.0000,0.000000000,0.000000000,0.000000000,0.000000,0.000000,0.000000,0.0000,0.0000,0.0000,6378155.0000,0.0000,0.0000,0.0000,0.0000,0.0000,0.000,0.000,0.000,0.00000000000,0.00000000000,18.0000,2.214,6378155.0000,0.0000,0.0000,0.0000,0.0000,0.0000,0.000,0.000,0.000,0.00000000000,0.00000000000,18.0000,2.214
103000,6378155.0000,0.0000,0.0000,0.0000,0.0000,0.0000,0.000,0.000,0.000,0.000,0.000,0.000,0.00000000000,0.00000000000,18.0000,0.000000000,0.000000000,0.000000000,0.000000,0.000000,0.000000,0.0000,0.0000,0.0000,6378155.0000,0.0000,0.0000,0.0000,0.0000,0.0000,0.000,0.000,0.000,0.00000000000,0.00000000000,18.0000,2.214,6378155.0000,0.0000,0.0000,0.0000,0.0000,0.0000,0.000,0.000,0.000,0.00000000000,0.00000000000,18.0000,2.214
104000,6378155.0000,0.0000,0.0000,0.0000,0.0000,0.0000,0.000,0.000,0.000,0.000,0.000,0.000,0.00000000000,0.00000000000,18.0000,0.000000000,0.000000000,0.000000000,0.000000,0.000000,0.000000,0.0000,0.0000,0.0000,6378155.0000,0.0000,0.0000,0.0000,0.0000,0.0000,0.000,0.000,0.000,0.00000000000,0.00000000000,18.0000,2.214,6378155.0000,0.0000,0.0000,0.0000,0.0000,0.0000,0.000,0.000,0.000,0.00000000000,0.00000000000,18.0000,2.214
105000,6378155.0000,0.0000,0.0000,0.0000,0.0000,0.0000,0.000,0.000,0.000,0.000,0.000,0.000,0.00000000000,0.00000000000,18.0000,0.000000000,0.000000000,0.000000000,0.000000,0.000000,0.000000,0.0000,0.0000,0.0000,6378155.0000,0.0000,0.0000,0.0000,0.0000,0.0000,0.000,0.000,0.000,0.00000000000,0.00000000000,18.0000,2.214,6378155.0000,0.0000,0.0000,0.0000,0.0000,0.0000,0.000,0.000,0.000,0.00000000000,0.00000000000,18.0000,2.214
106000,6378155.0000,0.0000,0.0000,0.0000,0.0000,0.0000,0.000,0.000,0.000,0.000,0.000,0.000,0.00000000000,0.00000000000,18.0000,0.000000000,0.000000000,0.000000000,0.000000,0.000000,0.000000,0.0000,0.0000,0.0000,6378155.0000,0.0000,0.0000,0.0000,0.0000,0.0000,0.000,0.000,0.000,0.00000000000,0.00000000000,18.0000,2.214,6378155.0000,0.0000,0.0000,0.0000,0.0000,0.0000,0.000,0.000,0.000,0.00000000000,0.00000000000,18.0000,2.214
107000,6378155.0000,0.0000,0.0000,0.0000,0.0000,0.0000,0.000,0.000,0.000,0.000,0.000,0.000,0.00000000000,0.00000000000,18.0000,0.000000000,0.000000000,0.000000000,0.000000,0.000000,0.000000,0.0000,0.0000,0.0000,6378155.0000,0.0000,0.0000,0.0000,0.0000,0.0000,0.000,0.000,0.000,0.00000000000,0.00000000000,18.0000,2.213,6378155.0000,0.0000,0.0000,0.0000,0.0000,0.0000,0.000,0.000,0.000,0.00000000000,0.00000000000,18.0000,2.213
108000,6378155.0000,0.0000,0.0000,0.0000,0.0000,0.0000,0.000,0.000,0.000,0.000,0.000,0.000,0.00000000000,0.00000000000,18.0000,0.000000000,0.000000000,0.000000000,0.000000,0.000000,0.000000,0.0000,0.0000,0.0000,6378155.0000,0.0000,0.0000,0.0000,0.0000,0.0000,0.000,0.000,0.000,0.00000000000,0.00000000000,18.0000,2.213,6378155.0000,0.0000,0.0000,0.0000,0.0000,0.0000,0.000,0.000,0.000,0.00000000000,0.00000000000,18.0000,2.213
109000,6378155.0000,0.0000,0.0000,0.0000,0.0000,0.0000,0.000,0.000,0.000,0.000,0.000,0.000,0.00000000000,0.00000000000,18.0000,0.000000000,0.000000000,0.000000000,0.000000,0.000000,0.000000,0.0000,0.0000,0.0000,6378155.0000,0.0000,0.0000,0.0000,0.0000,0.0000,0.000,0.000,0.000,0.00000000000,0.00000000000,18.0000,2.213,6378155.0000,0.0000,0.0000,0.0000,0.0000,0.0000,0.000,0.000,0.000,0.00000000000,0.00000000000,18.0000,2.213
110000,6378155.0000,0.0000,0.0000,0.0000,0.0000,0.0000,0.000,0.000,0.000,0.000,0.000,0.000,0.00000000000,0.00000000000,18.0000,0.000000000,0.000000000,0.000000000,0.000000,0.000000,0.000000,0.0000,0.0000,0.0000,6378155.0000,0.0000,0.0000,0.0000,0.0000,0.0000,0.000,0.000,0.000,0.00000000000,0.00000000000,18.0000,2.213,6378155.0000,0.0000,0.0000,0.0000,0.0000,0.0000,0.000,0.000,0.000,0.00000000000,0.00000000000,18.0000,2.213
111000,6378155.0000,0.0000,0.0000,0.0000,0.0000,0.0000,0.000,0.000,0.000,0.000,0.000,0.000,0.00000000000,0.00000000000,18.0000,0.000000000,0.000000000,0.000000000,0.000000,0.000000,0.000000,0.0000,0.0000,0.0000,6378155.0000,0.0000,0.0000,0.0000,0.0000,0.0000,0.000,0.000,0.000,0.00000000000,0.00000000000,18.0000,2.213,6378155.0000,0.0000,0.0000,0.0000,0.0000,0.0000,0.000,0.000,0.000,0.00000000000,0.00000000000,18.0000,2.213
112000,6378155.0000,0.0000,0.0000,0.0000,0.0000,0.0000,0.000,0.000,0.000,0.000,0.000,0.000,0.00000000000,0.00000000000,18.0000,0.000000000,0.000000000,0.000000000,0.000000,0.000000,0.000000,0.0000,0.0000,0.0000,6378155.0000,0.0000,0.0000,0.0000,0.0000,0.0000,0.000,0.000,0.000,0.00000000000,0.00000000000,18.0000,2.213,6378155.0000,0.0000,0.0000,0.0000,0.0000,0.0000,0.000,0.000,0.000,0.00000000000,0.00000000000,18.0000,2.213
113000,6378155.0000,0.0000,0.0000,0.0000,0.0000,0.0000,0.000,0.000,0.000,0.000,0.000,0.000,0.00000000000,0.00000000000,18.0000,0.000000000,0.000000000,0.000000000,0.000000,0.000000,0.000000,0.0000,0.0000,0.0000,6378155.0000,0.0000,0.0000,0.0000,0.0000,0.0000,0.000,0.000,0.000,0.00000000000,0.00000000000,18.0000,2.213,6378155.0000,0.0000,0.0000,0.0000,0.0000,0.0000,0.000,0.000,0.000,0.00000000000,0.00000000000,18.0000,2.213
114000,6378155.0000,0.0000,0.0000,0.0000,0.0000,0.0000,0.000,0.000,0.000,0.000,0.000,0.000,0.00000000000,0.00000000000,18.0000,0.000000000,0.000000000,0.000000000,0.000000,0.000000,0.000000,0.0000,0.0000,0.0000,6378155.0000,0.0000,0.0000,0.0000,0.0000,0.0000,0.000,0.000,0.000,0.00000000000,0.00000000000,18.0000,2.213,6378155.0000,0.0000,0.0000,0.0000,0.0000,0.0000,0.000,0.000,0.000,0.00000000000,0.00000000000,18.0000,2.213
115000,6378155.0000,0.0000,0.0000,0.0000,0.0000,0.0000,0.000,0.000,0.000,0.000,0.000,0.000,0.00000000000,0.00000000000,18.0000,0.000000000,0.000000000,0.000000000,0.000000,0.000000,0.000000,0.0000,0.0000,0.0000,6378155.0000,0.0000,0.0000,0.0000,0.0000,0.0000,0.000,0.000,0.000,0.00000000000,0.00000000000,18.0000,2.213,6378155.0000,0.0000,0.0000,0.0000,0.0000,0.0000,0.000,0.000,0.000,0.00000000000,0.00000000000,18.0000,2.213
116000,6378155.0000,0.0000,0.0000,0.0000,0.0000,0.0000,0.000,0.000,0.000,0.000,0.000,0.000,0.00000000000,0.00000000000,18.0000,0.000000000,0.000000000,0.000000000,0.000000,0.000000,0.000000,0.0000,0.0000,0.0000,6378155.0000,0.0000,0.0000,0.0000,0.0000,0.0000,0.000,0.000,0.000,0.00000000000,0.00000000000,18.0000,2.213,6378155.0000,0.0000,0.0000,0.0000,0.0000,0.0000,0.000,0.000,0.000,0.00000000000,0.00000000000,18.0000,2.213
117000,6378155.0000,0.0000,0.0000,0.0000,0.0000,0.0000,0.000,0.000,0.000,0.000,0.000,0.000,0.00000000000,0.00000000000,18.0000,0.000000000,0.000000000,0.000000000,0.000000,0.000000,0.000000,0.0000,0.0000,0.0000,6378155.0000,0.0000,0.0000,0.0000,0.0000,0.0000,0.000,0.000,0.000,0.00000000000,0.00000000000,18.0000,2.213,6378155.0000,0.0000,0.0000,0.0000,0.0000,0.0000,0.000,0.000,0.000,0.00000000000,0.00000000000,18.0000,2.213
118000,6378155.0000,0.0000,0.0000,0.0000,0.0000,0.0000,0.000,0.000,0.000,0.000,0.000,0.000,0.00000000000,0.00000000000,18.0000,0.000000000,0.000000000,0.000000000,0.000000,0.000000,0.000000,0.0000,0.0000,0.0000,6378155.0000,0.0000,0.0000,0.0000,0.0000,0.0000,0.000,0.000,0.000,0.00000000000,0.00000000000,18.0000,2.213,6378155.0000,0.0000,0.0000,0.0000,0.0000,0.0000,0.000,0.000,0.000,0.00000000000,0.00000000000,18.0000,2.213
119000,6378155.0000,0.0000,0.0000,0.0000,0.0000,0.0000,0.000,0.000,0.000,0.000,0.000,0.000,0.00000000000,0.00000000000,18.0000,0.000000000,0.000000000,0.000000000,0.000000,0.000000,0.000000,0.0000,0.0000,0.0000,6378155.0000,0.0000,0.0000,0.0000,0.0000,0.0000,0.000,0.000,0.000,0.00000000000,0.00000000000,18.0000,2.213,6378155.0000,0.0000,0.0000,0.0000,0.0000,0.0000,0.000,0.000,0.000,0.00000000000,0.00000000000,18.0000,2.213
120000,6378155.0000,0.0000,0.0000,0.0000,0.0000,0.0000,0.000,0.000,0.000,0.000,0.000,0.000,0.00000000000,0.00000000000,18.0000,0.000000000,0.000000000,0.000000000,0.000000,0.000000,0.000000,0.0000,0.0000,0.0000,6378155.0000,0.0000,0.0000,0.0000,0.0000,0.0000,0.000,0.000,0.000,0.00000000000,0.00000000000,18.0000,2.213,6378155.0000,0.0000,0.0000,0.0000,0.0000,0.0000,0.000,0.000,0.000,0.00000000000,0.00000000000,18.0000,2.213
121000,6378155.0000,0.0000,0.0000,0.0000,0.0000,0.0000,0.000,0.000,0.000,0.000,0.000,0.000,0.00000000000,0.00000000000,18.0000,0.000000000,0.000000000,0.000000000,0.000000,0.000000,0.000000,0.0000,0.0000,0.0000,6378155.0000,0.0000,0.0000,0.0000,0.0000,0.0000,0.000,0.000,0.000,0.00000000000,0.00000000000,18.0000,2.213,6378155.0000,0.0000,0.0000,0.0000,0.0000,0.0000,0.000,0.000,0.000,0.00000000000,0.00000000000,18.0000,2.213
122000,6378155.0000,0.0000,0.0000,0.0000,0.0000,0.0000,0.000,0.000,0.000,0.000,0.000,0.000,0.00000000000,0.00000000000,18.0000,0.000000000,0.000000000,0.000000000,0.000000,0.000000,0.000000,0.0000,0.0000,0.0000,6378155.0000,0.0000,0.0000,0.0000,0.0000,0.0000,0.000,0.000,0.000,0.00000000000,0.00000000000,18.0000,2.213,6378155.0000,0.0000,0.0000,0.0000,0.0000,0.0000,0.000,0.000,0.000,0.00000000000,0.00000000000,18.0000,2.213
123000,6378155.0000,0.0000,0.0000,0.0000,0.0000,0.0000,0.000,0.000,0.000,0.000,0.000,0.000,0.00000000000,0.00000000000,18.0000,0.000000000,0.000000000,0.000000000,0.000000,0.000000,0.000000,0.0000,0.0000,0.0000,6378155.0000,0.0000,0.0000,0.0000,0.0000,0.0000,0.000,0.000,0.000,0.00000000000,0.00000000000,18.0000,2.213,6378155.0000,0.0000,0.0000,0.0000,0.0000,0.0000,0.000,0.000,0.000,0.00000000000,0.00000000000,18.0000,2.213
124000,6378155.0000,0.0000,0.0000,0.0000,0.0000,0.0000,0.000,0.000,0.000,0.000,0.000,0.000,0.00000000000,0.00000000000,18.0000,0.000000000,0.000000000,0.000000000,0.000000,0.000000,0.000000,0.0000,0.0000,0.0000,6378155.0000,0.0000,0.0000,0.0000,0.0000,0.0000,0.000,0.000,0.000,0.00000000000,0.00000000000,18.0000,2.213,6378155.0000,0.0000,0.0000,0.0000,0.0000,0.0000,0.000,0.000,0.000,0.00000000000,0.00000000000,18.0000,2.213
125000,6378155.0000,0.0000,0.0000,0.0000,0.0000,0.0000,0.000,0.000,0.000,0.000,0.000,0.000,0.00000000000,0.00000000000,18.0000,0.000000000,0.000000000,0.000000000,0.000000,0.000000,0.000000,0.0000,0.0000,0.0000,6378155.0000,0.0000,0.0000,0.0000,0.0000,0.0000,0.000,0.000,0.000,0.00000000000,0.00000000000,18.0000,2.213,6378155.0000,0.0000,0.0000,0.0000,0.0000,0.0000,0.000,0.000,0.000,0.00000000000,0.00000000000,18.0000,2.213
126000,6378155.0000,0.0000,0.0000,0.0000,0.0000,0.0000,0.000,0.000,0.000,0.000,0.000,0.000,0.00000000000,0.00000000000,18.0000,0.000000000,0.000000000,0.000000000,0.000000,0.000000,0.000000,0.0000,0.0000,0.0000,6378155.0000,0.0000,0.0000,0.0000,0.0000,0.0000,0.000,0.000,0.000,0.00000000000,0.00000000000,18.0000,2.213,6378155.0000,0.0000,0.0000,0.0000,0.0000,0.0000,0.000,0.000,0.000,0.00000000000,0.00000000000,18.0000,2.213
127000,6378155.0000,0.0000,0.0000,0.0000,0.0000,0.0000,0.000,0.000,0.000,0.000,0.000,0.000,0.00000000000,0.00000000000,18.0000,0.000000000,0.000000000,0.000000000,0.000000,0.000000,0.000000,0.0000,0.0000,0.0000,6378155.0000,0.0000,0.0000,0.0000,0.0000,0.0000,0.000,0.000,0.000,0.00000000000,0.00000000000,18.0000,2.213,6378155.0000,0.0000,0.0000,0.0000,0.0000,0.0000,0.000,0.000,0.000,0.00000000000,0.00000000000,18.0000,2.213
128000,6378155.0000,0.0000,0.0000,0.0000,0.0000,0.0000,0.000,0.000,0.000,0.000,0.000,0.000,0.00000000000,0.00000000000,18.0000,0.000000000,0.000000000,0.000000000,0.000000,0.000000,0.000000,0.0000,0.0000,0.0000,6378155.0000,0.0000,0.0000,0.0000,0.0000,0.0000,0.000,0.000,0.000,0.00000000000,0.00000000000,18.0000,2.213,6378155.0000,0.0000,0.0000,0.0000,0.0000,0.0000,0.000,0.000,0.000,0.00000000000,0.00000000000,18.0000,2.213
129000,6378155.0000,0.0000,0.0000,0.0000,0.0000,0.0000,0.000,0.000,0.000,0.000,0.000,0.000,0.00000000000,0.00000000000,18.0000,0.000000000,0.000000000,0.000000000,0.000000,0.000000,0.000000,0.0000,0.0000,0.0000,6378155.0000,0.0000,0.0000,0.0000,0.0000,0.0000,0.000,0.000,0.000,0.00000000000,0.00000000000,18.0000,2.213,6378155.0000,0.0000,0.0000,0.0000,0.0000,0.0000,0.000,0.000,0.000,0.00000000000,0.00000000000,18.0000,2.213
130000,6378155.0000,0.0000,0.0000,0.0000,0.0000,0.0000,0.000,0.000,0.000,0.000,0.000,0.000,0.00000000000,0.00000000000,18.0000,0.000000000,0.000000000,0.000000000,0.000000,0.000000,0.000000,0.0000,0.0000,0.0000,6378155.0000,0.0000,0.0000,0.0000,0.0000,0.0000,0.000,0.000,0.000,0.00000000000,0.00000000000,18.0000,2.213,6378155.0000,0.0000,0.0000,0.0000,0.0000,0.0000,0.000,0.000,0.000,0.00000000000,0.00000000000,18.0000,2.213
131000,6378155.0000,0.0000,0.0000,0.0000,0.0000,0.0000,0.000,0.000,0.000,0.000,0.000,0.000,0.00000000000,0.00000000000,18.0000,0.000000000,0.000000000,0.000000000,0.000000,0.000000,0.000000,0.0000,0.0000,0.0000,6378155.0000,0.0000,0.0000,0.0000,0.0000,0.0000,0.000,0.000,0.000,0.00000000000,0.00000000000,18.0000,2.213,6378155.0000,0.0000,0.0000,0.0000,0.0000,0.0000,0.000,0.000,0.000,0.00000000000,0.00000000000,18.0000,2.213
132000,6378155.0000,0.0000,0.0000,0.0000,0.0000,0.0000,0.000,0.000,0.000,0.000,0.000,0.000,0.00000000000,0.00000000000,18.0000,0.000000000,0.000000000,0.000000000,0.000000,0.000000,0.000000,0.0000,0.0000,0.0000,6378155.0000,0.0000,0.0000,0.0000,0.0000,0.0000,0.000,0.000,0.000,0.00000000000,0.00000000000,18.0000,2.213,6378155.0000,0.0000,0.0000,0.0000,0.0000,0.0000,0.000,0.000,0.000,0.00000000000,0.00000000000,18.0000,2.213
133000,6378155.0000,0.0000,0.0000,0.0000,0.0000,0.0000,0.000,0.000,0.000,0.000,0.000,0.000,0.00000000000,0.00000000000,18.0000,0.000000000,0.000000000,0.000000000,0.000000,0.000000,0.000000,0.0000,0.0000,0.0000,6378155.0000,0.0000,0.0000,0.0000,0.0000,0.0000,0.000,0.000,0.000,0.00000000000,0.00000000000,18.0000,2.213,6378155.0000,0.0000,0.0000,0.0000,0.0000,0.0000,0.000,0.000,0.000,0.00000000000,0.00000000000,18.0000,2.213
134000,6378155.0000,0.0000,0.0000,0.0000,0.0000,0.0000,0.000,0.000,0.000,0.000,0.000,0.000,0.00000000000,0.00000000000,18.0000,0.000000000,0.000000000,0.000000000,0.000000,0.000000,0.000000,0.0000,0.0000,0.0000,6378155.0000,0.0000,0.0000,0.0000,0.0000,0.0000,0.000,0.000,0.000,0.00000000000,0.00000000000,18.0000,2.213,6378155.0000,0.0000,0.0000,0.0000,0.0000,0.0000,0.000,0.000,0.000,0.00000000000,0.00000000000,18.0000,2.213
135000,6378155.0000,0.0000,0.0000,0.0000,0.0000,0.0000,0.000,0.000,0.000,0.000,0.000,0.000,0.00000000000,0.00000000000,18.0000,0.000000000,0.000000000,0.000000000,0.000000,0.000000,0.000000,0.0000,0.0000,0.0000,6378155.0000,0.0000,0.0000,0.0000,0.0000,0.0000,0.000,0.000,0.000,0.00000000000,0.00000000000,18.0000,2.213,6378155.0000,0.0000,0.0000,0.0000,0.0000,0.0000,0.000,0.000,0.000,0.00000000000,0.00000000000,18.0000,2.213
136000,6378155.0000,0.0000,0.0000,0.0000,0.0000,0.0000,0.000,0.000,0.000,0.000,0.000,0.000,0.00000000000,0.00000000000,18.0000,0.000000000,0.000000000,0.000000000,0.000000,0.000000,0.000000,0.0000,0.0000,0.0000,6378155.0000,0.0000,0.0000,0.0000,0.0000,0.0000,0.000,0.000,0.000,0.00000000000,0.00000000000,18.0000,2.213,6378155.0000,0.0000,0.0000,0.0000,0.0000,0.0000,0.000,0.000,0.000,0.00000000000,0.00000000000,18.0000,2.213
137000,6378155.0000,0.0000,0.0000,0.0000,0.0000,0.0000,0.000,0.000,0.000,0.000,0.000,0.000,0.00000000000,0.00000000000,18.0000,0.000000000,0.000000000,0.000000000,0.000000,0.000000,0.000000,0.0000,0.0000,0.0000,6378155.0000,0.0000,0.0000,0.0000,0.0000,0.0000,0.000,0.000,0.000,0.00000000000,0.00000000000,18.0000,2.212,6378155.0000,0.0000,0.0000,0.0000,0.0000,0.0000,0.000,0.000,0.000,0.00000000000,0.00000000000,18.0000,2.212
138000,6378155.0000,0.0000,0.0000,0.0000,0.0000,0.0000,0.000,0.000,0.000,0.000,0.000,0.000,0.00000000000,0.00000000000,18.0000,0.000000000,0.000000000,0.000000000,0.000000,0.000000,0.000000,0.0000,0.0000,0.0000,6378155.0000,0.0000,0.0000,0.0000,0.0000,0.0000,0.000,0.000,0.000,0.00000000000,0.00000000000,18.0000,2.212,6378155.0000,0.0000,0.0000,0.0000,0.0000,0.0000,0.000,0.000,0.000,0.00000000000,0.00000000000,18.0000,2.212
139000,6378155.0000,0.0000,0.0000,0.0000,0.0000,0.0000,0.000,0.000,0.000,0.000,0.000,0.000,0.00000000000,0.00000000000,18.0000,0.000000000,0.000000000,0.000000000,0.000000,0.000000,0.000000,0.0000,0.0000,0.0000,6378155.0000,0.0000,0.0000,0.0000,0.0000,0.0000,0.000,0.000,0.000,0.00000000000,0.00000000000,18.0000,2.212,6378155.0000,0.0000,0.0000,0.0000,0.0000,0.0000,0.000,0.000,0.000,0.00000000000,0.00000000000,18.0000,2.212
140000,6378155.0000,0.0000,0.0000,0.0000,0.0000,0.0000,0.000,0.000,0.000,0.000,0.000,0.000,0.00000000000,0.00000000000,18.0000,0.000000000,0.000000000,0.000000000,0.000000,0.000000,0.000000,0.0000,0.0000,0.0000,6378155.0000,0.0000,0.0000,0.0000,0.0000,0.0000,0.000,0.000,0.000,0.00000000000,0.00000000000,18.0000,2.212,6378155.0000,0.0000,0.0000,0.0000,0.0000,0.0000,0.000,0.000,0.000,0.00000000000,0.00000000000,18.0000,2.212
141000,6378155.0000,0.0000,0.0000,0.0000,0.0000,0.0000,0.000,0.000,0.000,0.000,0.000,0.000,0.00000000000,0.00000000000,18.0000,0.000000000,0.000000000,0.000000000,0.000000,0.000000,0.000000,0.0000,0.0000,0.0000,6378155.0000,0.0000,0.0000,0.0000,0.0000,0.0000,0.000,0.000,0.000,0.00000000000,0.00000000000,18.0000,2.212,6378155.0000,0.0000,0.0000,0.0000,0.0000,0.0000,0.000,0.000,0.000,0.00000000000,0.00000000000,18.0000,2.212
142000,6378155.0000,0.0000,0.0000,0.0000,0.0000,0.0000,0.000,0.000,0.000,0.000,0.000,0.000,0.00000000000,0.00000000000,18.0000,0.000000000,0.000000000,0.000000000,0.000000,0.000000,0.000000,0.0000,0.0000,0.0000,6378155.0000,0.0000,0.0000,0.0000,0.0000,0.0000,0.000,0.000,0.000,0.00000000000,0.00000000000,18.0000,2.212,6378155.0000,0.0000,0.0000,0.0000,0.0000,0.0000,0.000,0.000,0.000,0.00000000000,0.00000000000,18.0000,2.212
143000,6378155.0000,0.0000,0.0000,0.0000,0.0000,0.0000,0.000,0.000,0.000,0.000,0.000,0.000,0.00000000000,0.00000000000,18.0000,0.000000000,0.000000000,0.000000000,0.000000,0.000000,0.000000,0.0000,0.0000,0.0000,6378155.0000,0.0000,0.0000,0.0000,0.0000,0.0000,0.000,0.000,0.000,0.00000000000,0.00000000000,18.0000,2.212,6378155.0000,0.0000,0.0000,0.0000,0.0000,0.0000,0.000,0.000,0.000,0.00000000000,0.00000000000,18.0000,2.212
144000,6378155.0000,0.0000,0.0000,0.0000,0.0000,0.0000,0.000,0.000,0.000,0.000,0.000,0.000,0.00000000000,0.00000000000,18.0000,0.000000000,0.000000000,0.000000000,0.000000,0.000000,0.000000,0.0000,0.0000,0.0000,6378155.0000,0.0000,0.0000,0.0000,0.0000,0.0000,0.000,0.000,0.000,0.00000000000,0.00000000000,18.0000,2.212,6378155.0000,0.0000,0.0000,0.0000,0.0000,0.0000,0.000,0.000,0.000,0.00000000000,0.00000000000,18.0000,2.212
145000,6378155.0000,0.0000,0.0000,0.0000,0.0000,0.0000,0.000,0.000,0.000,0.000,0.000,0.000,0.00000000000,0.00000000000,18.0000,0.000000000,0.000000000,0.000000000,0.000000,0.000000,0.000000,0.0000,0.0000,0.0000,6378155.0000,0.0000,0.0000,0.0000,0.0000,0.0000,0.000,0.000,0.000,0.00000000000,0.00000000000,18.0000,2.212,6378155.0000,0.0000,0.0000,0.0000,0.0000,0.0000,0.000,0.000,0.000,0.00000000000,0.00000000000,18.0000,2.212
146000,6378155.0000,0.0000,0.0000,0.0000,0.0000,0.0000,0.000,0.000,0.000,0.000,0.000,0.000,0.00000000000,0.00000000000,18.0000,0.000000000,0.000000000,0.000000000,0.000000,0.000000,0.000000,0.0000,0.0000,0.0000,6378155.0000,0.0000,0.0000,0.0000,0.0000,0.0000,0.000,0.000,0.000,0.00000000000,0.00000000000,18.0000,2.212,6378155.0000,0.0000,0.0000,0.0000,0.0000,0.0000,0.000,0.000,0.000,0.00000000000,0.00000000000,18.0000,2.212
147000,6378155.0000,0.0000,0.0000,0.0000,0.0000,0.0000,0.000,0.000,0.000,0.000,0.000,0.000,0.00000000000,0.00000000000,18.0000,0.000000000,0.000000000,0.000000000,0.000000,0.000000,0.000000,0.0000,0.0000,0.0000,6378155.0000,0.0000,0.0000,0.0000,0.0000,0.0000,0.000,0.000,0.000,0.00000000000,0.00000000000,18.0000,2.212,6378155.0000,0.0000,0.0000,0.0000,0.0000,0.0000,0.000,0.000,0.000,0.00000000000,0.00000000000,18.0000,2.212
148000,6378155.0000,0.0000,0.0000,0.0000,0.0000,0.0000,0.000,0.000,0.000,0.000,0.000,0.000,0.00000000000,0.00000000000,18.0000,0.000000000,0.000000000,0.000000000,0.000000,0.000000,0.000000,0.0000,0.0000,0.0000,6378155.0000,0.0000,0.0000,0.0000,0.0000,0.0000,0.000,0.000,0.000,0.00000000000,0.00000000000,18.0000,2.212,6378155.0000,0.0000,0.0000,0.0000,0.0000,0.0000,0.000,0.000,0.000,0.00000000000,0.00000000000,18.0000,2.212
149000,6378155.0000,0.0000,0.0000,0.0000,0.0000,0.0000,0.000,0.000,0.000,0.000,0.000,0.000,0.00000000000,0.00000000000,18.0000,0.000000000,0.000000000,0.000000000,0.000000,0.000000,0.000000,0.0000,0.0000,0.0000,6378155.0000,0.0000,0.0000,0.0000,0.0000,0.0000,0.000,0.000,0.000,0.00000000000,0.00000000000,18.0000,2.212,6378155.0000,0.0000,0.0000,0.0000,0.0000,0.0000,0.000,0.000,0.000,0.00000000000,0.00000000000,18.0000,2.212
150000,6378155.0000,0.0000,0.0000,0.0000,0.0000,0.0000,0.000,0.000,0.000,0.000,0.000,0.000,0.00000000000,0.00000000000,18.0000,0.000000000,0.000000000,0.000000000,0.000000,0.000000,0.000000,0.0000,0.0000,0.0000,6378155.0000,0.0000,0.0000,0.0000,0.0000,0.0000,0.000,0.000,0.000,0.00000000000,0.00000000000,18.0000,2.212,6378155.0000,0.0000,0.0000,0.0000,0.0000,0.0000,0.000,0.000,0.000,0.00000000000,0.00000000000,18.0000,2.212
151000,6378155.0000,0.0000,0.0000,0.0000,0.0000,0.0000,0.000,0.000,0.000,0.000,0.000,0.000,0.00000000000,0.00000000000,18.0000,0.000000000,0.000000000,0.000000000,0.000000,0.000000,0.000000,0.0000,0.0000,0.0000,6378155.0000,0.0000,0.0000,0.0000,0.0000,0.0000,0.000,0.000,0.000,0.00000000000,0.00000000000,18.0000,2.212,6378155.0000,0.0000,0.0000,0.0000,0.0000,0.0000,0.000,0.000,0.000,0.00000000000,0.00000000000,18.0000,2.212
152000,6378155.0000,0.0000,0.0000,0.0000,0.0000,0.0000,0.000,0.000,0.000,0.000,0.000,0.000,0.00000000000,0.00000000000,18.0000,0.000000000,0.000000000,0.000000000,0.000000,0.000000,0.000000,0.0000,0.0000,0.0000,6378155.0000,0.0000,0.0000,0.0000,0.0000,0.0000,0.000,0.000,0.000,0.00000000000,0.00000000000,18.0000,2.212,6378155.0000,0.0000,0.0000,0.0000,0.0000,0.0000,0.000,0.000,0.000,0.00000000000,0.00000000000,18.0000,2.212
153000,6378155.0000,0.0000,0.0000,0.0000,0.0000,0.0000,0.000,0.000,0.000,0.000,0.000,0.000,0.00000000000,0.00000000000,18.0000,0.000000000,0.000000000,0.000000000,0.000000,0.000000,0.000000,0.0000,0.0000,0.0000,6378155.0000,0.0000,0.0000,0.0000,0.0000,0.0000,0.000,0.000,0.000,0.00000000000,0.00000000000,18.0000,2.212,6378155.0000,0.0000,0.0000,0.0000,0.0000,0.0000,0.000,0.000,0.000,0.00000000000,0.00000000000,18.0000,2.212
154000,6378155.0000,0.0000,0.0000,0.0000,0.0000,0.0000,0.000,0.000,0.000,0.000,0.000,0.000,0.00000000000,0.00000000000,18.0000,0.000000000,0.000000000,0.000000000,0.000000,0.000000,0.000000,0.0000,0.0000,0.0000,6378155.0000,0.0000,0.0000,0.0000,0.0000,0.0000,0.000,0.000,0.000,0.00000000000,0.00000000000,18.0000,2.212,6378155.0000,0.0000,0.0000,0.0000,0.0000,0.0000,0.000,0.000,0.000,0.00000000000,0.00000000000,18.0000,2.212
155000,6378155.0000,0.0000,0.0000,0.0000,0.0000,0.0000,0.000,0.000,0.000,0.000,0.000,0.000,0.00000000000,0.00000000000,18.0000,0.000000000,0.000000000,0.000000000,0.000000,0.000000,0.000000,0.0000,0.0000,0.0000,6378155.0000,0.0000,0.0000,0.0000,0.0000,0.0000,0.000,0.000,0.000,0.00000000000,0.00000000000,18.0000,2.212,6378155.0000,0.0000,0.0000,0.0000,0.0000,0.0000,0.000,0.000,0.000,0.00000000000,0.00000000000,18.0000,2.212
156000,6378155.0000,0.0000,0.0000,0.0000,0.0000,0.0000,0.000,0.000,0.000,0.000,0.000,0.000,0.00000000000,0.00000000000,18.0000,0.000000000,0.000000000,0.000000000,0.000000,0.000000,0.000000,0.0000,0.0000,0.0000,6378155.0000,0.0000,0.0000,0.0000,0.0000,0.0000,0.000,0.000,0.000,0.00000000000,0.00000000000,18.0000,2.212,6378155.0000,0.0000,0.0000,0.0000,0.0000,0.0000,0.000,0.000,0.000,0.00000000000,0.00000000000,18.0000,2.212
157000,6378155.0000,0.0000,0.0000,0.0000,0.0000,0.0000,0.000,0.000,0.000,0.000,0.000,0.000,0.00000000000,0.00000000000,18.0000,0.000000000,0.000000000,0.000000000,0.000000,0.000000,0.000000,0.0000,0.0000,0.0000,6378155.0000,0.0000,0.0000,0.0000,0.0000,0.0000,0.000,0.000,0.000,0.00000000000,0.00000000000,18.0000,2.212,6378155.0000,0.0000,0.0000,0.0000,0.0000,0.0000,0.000,0.000,0.000,0.00000000000,0.00000000000,18.0000,2.212
158000,6378155.0000,0.0000,0.0000,0.0000,0.0000,0.0000,0.000,0.000,0.000,0.000,0.000,0.000,0.00000000000,0.00000000000,18.0000,0.000000000,0.000000000,0.000000000,0.000000,0.000000,0.000000,0.0000,0.0000,0.0000,6378155.0000,0.0000,0.0000,0.0000,0.0000,0.0000,0.000,0.000,0.000,0.00000000000,0.00000000000,18.0000,2.212,6378155.0000,0.0000,0.0000,0.0000,0.0000,0.0000,0.000,0.000,0.000,0.00000000000,0.00000000000,18.0000,2.212
159000,6378155.0000,0.0000,0.0000,0.0000,0.0000,0.0000,0.000,0.000,0.000,0.000,0.000,0.000,0.00000000000,0.00000000000,18.0000,0.000000000,0.000000000,0.000000000,0.000000,0.000000,0.000000,0.0000,0.0000,0.0000,6378155.0000,0.0000,0.0000,0.0000,0.0000,0.0000,0.000,0.000,0.000,0.00000000000,0.00000000000,18.0000,2.212,6378155.0000,0.0000,0.0000,0.0000,0.0000,0.0000,0.000,0.000,0.000,0.00000000000,0.00000000000,18.0000,2.212
160000,6378155.0000,0.0000,0.0000,0.0000,0.0000,0.0000,0.000,0.000,0.000,0.000,0.000,0.000,0.00000000000,0.00000000000,18.0000,0.000000000,0.000000000,0.000000000,0.000000,0.000000,0.000000,0.0000,0.0000,0.0000,6378155.0000,0.0000,0.0000,0.0000,0.0000,0.0000,0.000,0.000,0.000,0.00000000000,0.00000000000,18.0000,2.212,6378155.0000,0.0000,0.0000,0.0000,0.0000,0.0000,0.000,0.000,0.000,0.00000000000,0.00000000000,18.0000,2.212
161000,6378155.0000,0.0000,0.0000,0.0000,0.0000,0.0000,0.000,0.000,0.000,0.000,0.000,0.000,0.00000000000,0.00000000000,18.0000,0.000000000,0.000000000,0.000000000,0.000000,0.000000,0.000000,0.0000,0.0000,0.0000,6378155.0000,0.0000,0.0000,0.0000,0.0000,0.0000,0.000,0.000,0.000,0.00000000000,0.00000000000,18.0000,2.212,6378155.0000,0.0000,0.0000,0.0000,0.0000,0.0000,0.000,0.000,0.000,0.00000000000,0.00000000000,18.0000,2.212
162000,6378155.0000,0.0000,0.0000,0.0000,0.0000,0.0000,0.000,0.000,0.000,0.000,0.000,0.000,0.00000000000,0.00000000000,18.0000,0.000000000,0.000000000,0.000000000,0.000000,0.000000,0.000000,0.0000,0.0000,0.0000,6378155.0000,0.0000,0.0000,0.0000,0.0000,0.0000,0.000,0.000,0.000,0.00000000000,0.00000000000,18.0000,2.212,6378155.0000,0.0000,0.0000,0.0000,0.0000,0.0000,0.000,0.000,0.000,0.00000000000,0.00000000000,18.0000,2.212
163000,6378155.0000,0.0000,0.0000,0.0000,0.0000,0.0000,0.000,0.000,0.000,0.000,0.000,0.000,0.00000000000,0.00000000000,18.0000,0.000000000,0.000000000,0.000000000,0.000000,0.000000,0.000000,0.0000,0.0000,0.0000,6378155.0000,0.0000,0.0000,0.0000,0.0000,0.0000,0.000,0.000,0.000,0.00000000000,0.00000000000,18.0000,2.212,6378155.0000,0.0000,0.0000,0.0000,0.0000,0.0000,0.000,0.000,0.000,0.00000000000,0.00000000000,18.0000,2.212
164000,6378155.0000,0.0000,0.0000,0.0000,0.0000,0.0000,0.000,0.000,0.000,0.000,0.000,0.000,0.00000000000,0.00000000000,18.0000,0.000000000,0.000000000,0.000000000,0.000000,0.000000,0.000000,0.0000,0.0000,0.0000,6378155.0000,0.0000,0.0000,0.0000,0.0000,0.0000,0.000,0.000,0.000,0.00000000000,0.00000000000,18.0000,2.212,6378155.0000,0.0000,0.0000,0.0000,0.0000,0.0000,0.000,0.000,0.000,0.00000000000,0.00000000000,18.0000,2.212
165000,6378155.0000,0.0000,0.0000,0.0000,0.0000,0.0000,0.000,0.000,0.000,0.000,0.000,0.000,0.00000000000,0.00000000000,18.0000,0.000000000,0.000000000,0.000000000,0.000000,0.000000,0.000000,0.0000,0.0000,0.0000,6378155.0000,0.0000,0.0000,0.0000,0.0000,0.0000,0.000,0.000,0.000,0.00000000000,0.00000000000,18.0000,2.212,6378155.0000,0.0000,0.0000,0.0000,0.0000,0.0000,0.000,0.000,0.000,0.00000000000,0.00000000000,18.0000,2.212
166000,6378155.0000,0.0000,0.0000,0.0000,0.0000,0.0000,0.000,0.000,0.000,0.000,0.000,0.000,0.00000000000,0.00000000000,18.0000,0.000000000,0.000000000,0.000000000,0.000000,0.000000,0.000000,0.0000,0.0000,0.0000,6378155.0000,0.0000,0.0000,0.0000,0.0000,0.0000,0.000,0.000,0.000,0.00000000000,0.00000000000,18.0000,2.212,6378155.0000,0.0000,0.0000,0.0000,0.0000,0.0000,0.000,0.000,0.000,0.00000000000,0.00000000000,18.0000,2.212
167000,6378155.0000,0.0000,0.0000,0.0000,0.0000,0.0000,0.000,0.000,0.000,0.000,0.000,0.000,0.00000000000,0.00000000000,18.0000,0.000000000,0.000000000,0.000000000,0.000000,0.000000,0.000000,0.0000,0.0000,0.0000,6378155.0000,0.0000,0.0000,0.0000,0.0000,0.0000,0.000,0.000,0.000,0.00000000000,0.00000000000,18.0000,2.211,6378155.0000,0.0000,0.0000,0.0000,0.0000,0.0000,0.000,0.000,0.000,0.00000000000,0.00000000000,18.0000,2.211
168000,6378155.0000,0.0000,0.0000,0.0000,0.0000,0.0000,0.000,0.000,0.000,0.000,0.000,0.000,0.00000000000,0.00000000000,18.0000,0.000000000,0.000000000,0.000000000,0.000000,0.000000,0.000000,0.0000,0.0000,0.0000,6378155.0000,0.0000,0.0000,0.0000,0.0000,0.0000,0.000,0.000,0.000,0.00000000000,0.00000000000,18.0000,2.211,6378155.0000,0.0000,0.0000,0.0000,0.0000,0.0000,0.000,0.000,0.000,0.00000000000,0.00000000000,18.0000,2.211
169000,6378155.0000,0.0000,0.0000,0.0000,0.0000,0.0000,0.000,0.000,0.000,0.000,0.000,0.000,0.00000000000,0.00000000000,18.0000,0.000000000,0.000000000,0.000000000,0.000000,0.000000,0.000000,0.0000,0.0000,0.0000,6378155.0000,0.0000,0.0000,0.0000,0.0000,0.0000,0.000,0.000,0.000,0.00000000000,0.00000000000,18.0000,2.211,6378155.0000,0.0000,0.0000,0.0000,0.0000,0.0000,0.000,0.000,0.000,0.00000000000,0.00000000000,18.0000,2.211
170000,6378155.0000,0.0000,0.0000,0.0000,0.0000,0.0000,0.000,0.000,0.000,0.000,0.000,0.000,0.00000000000,0.00000000000,18.0000,0.000000000,0.000000000,0.000000000,0.000000,0.000000,0.000000,0.0000,0.0000,0.0000,6378155.0000,0.0000,0.0000,0.0000,0.0000,0.0000,0.000,0.000,0.000,0.00000000000,0.00000000000,18.0000,2.211,6378155.0000,0.0000,0.0000,0.0000,0.0000,0.0000,0.000,0.000,0.000,0.00000000000,0.00000000000,18.0000,2.211
171000,6378155.0000,0.0000,0.0000,0.0000,0.0000,0.0000,0.000,0.000,0.000,0.000,0.000,0.000,0.00000000000,0.00000000000,18.0000,0.000000000,0.000000000,0.000000000,0.000000,0.000000,0.000000,0.0000,0.0000,0.0000,6378155.0000,0.0000,0.0000,0.0000,0.0000,0.0000,0.000,0.000,0.000,0.00000000000,0.00000000000,18.0000,2.211,6378155.0000,0.0000,0.0000,0.0000,0.0000,0.0000,0.000,0.000,0.000,0.00000000000,0.00000000000,18.0000,2.211
172000,6378155.0000,0.0000,0.0000,0.0000,0.0000,0.0000,0.000,0.000,0.000,0.000,0.000,0.000,0.00000000000,0.00000000000,18.0000,0.000000000,0.000000000,0.000000000,0.000000,0.000000,0.000000,0.0000,0.0000,0.0000,6378155.0000,0.0000,0.0000,0.0000,0.0000,0.0000,0.000,0.000,0.000,0.00000000000,0.00000000000,18.0000,2.211,6378155.0000,0.0000,0.0000,0.0000,0.0000,0.0000,0.000,0.000,0.000,0.00000000000,0.00000000000,18.0000,2.211
173000,6378155.0000,0.0000,0.0000,0.0000,0.0000,0.0000,0.000,0.000,0.000,0.000,0.000,0.000,0.00000000000,0.00000000000,18.0000,0.000000000,0.000000000,0.000000000,0.000000,0.000000,0.000000,0.0000,0.0000,0.0000,6378155.0000,0.0000,0.0000,0.0000,0.0000,0.0000,0.000,0.000,0.000,0.00000000000,0.00000000000,18.0000,2.211,6378155.0000,0.0000,0.0000,0.0000,0.0000,0.0000,0.000,0.000,0.000,0.00000000000,0.00000000000,18.0000,2.211
174000,6378155.0000,0.0000,0.0000,0.0000,0.0000,0.0000,0.000,0.000,0.000,0.000,0.000,0.000,0.00000000000,0.00000000000,18.0000,0.000000000,0.000000000,0.000000000,0.000000,0.000000,0.000000,0.0000,0.0000,0.0000,6378155.0000,0.0000,0.0000,0.0000,0.0000,0.0000,0.000,0.000,0.000,0.00000000000,0.00000000000,18.0000,2.211,6378155.0000,0.0000,0.0000,0.0000,0.0000,0.0000,0.000,0.000,0.000,0.00000000000,0.00000000000,18.0000,2.211
175000,6378155.0000,0.0000,0.0000,0.0000,0.0000,0.0000,0.000,0.000,0.000,0.000,0.000,0.000,0.00000000000,0.00000000000,18.0000,0.000000000,0.000000000,0.000000000,0.000000,0.000000,0.000000,0.0000,0.0000,0.0000,6378155.0000,0.0000,0.0000,0.0000,0.0000,0.0000,0.000,0.000,0.000,0.00000000000,0.00000000000,18.0000,2.211,6378155.0000,0.0000,0.0000,0.0000,0.0000,0.0000,0.000,0.000,0.000,0.00000000000,0.00000000000,18.0000,2.211
176000,6378155.0000,0.0000,0.0000,0.0000,0.0000,0.0000,0.000,0.000,0.000,0.000,0.000,0.000,0.00000000000,0.00000000000,18.0000,0.000000000,0.000000000,0.000000000,0.000000,0.000000,0.000000,0.0000,0.0000,0.0000,6378155.0000,0.0000,0.0000,0.0000,0.0000,0.0000,0.000,0.000,0.000,0.00000000000,0.00000000000,18.0000,2.211,6378155.0000,0.0000,0.0000,0.0000,0.0000,0.0000,0.000,0.000,0.000,0.00000000000,0.00000000000,18.0000,2.211
177000,6378155.0000,0.0000,0.0000,0.0000,0.0000,0.0000,0.000,0.000,0.000,0.000,0.000,0.000,0.00000000000,0.00000000000,18.0000,0.000000000,0.000000000,0.000000000,0.000000,0.000000,0.000000,0.0000,0.0000,0.0000,6378155.0000,0.0000,0.0000,0.0000,0.0000,0.0000,0.000,0.000,0.000,0.00000000000,0.00000000000,18.0000,2.211,6378155.0000,0.0000,0.0000,0.0000,0.0000,0.0000,0.000,0.000,0.000,0.00000000000,0.00000000000,18.0000,2.211
178000,6378155.0000,0.0000,0.0000,0.0000,0.0000,0.0000,0.000,0.000,0.000,0.000,0.000,0.000,0.00000000000,0.00000000000,18.0000,0.000000000,0.000000000,0.000000000,0.000000,0.000000,0.000000,0.0000,0.0000,0.0000,6378155.0000,0.0000,0.0000,0.0000,0.0000,0.0000,0.000,0.000,0.000,0.00000000000,0.00000000000,18.0000,2.211,6378155.0000,0.0000,0.0000,0.0000,0.0000,0.0000,0.000,0.000,0.000,0.00000000000,0.00000000000,18.0000,2.211
179000,6378155.0000,0.0000,0.0000,0.0000,0.0000,0.0000,0.000,0.000,0.000,0.000,0.000,0.000,0.00000000000,0.00000000000,18.0000,0.000000000,0.000000000,0.000000000,0.000000,0.000000,0.000000,0.0000,0.0000,0.0000,6378155.0000,0.0000,0.0000,0.0000,0.0000,0.0000,0.000,0.000,0.000,0.00000000000,0.00000000000,18.0000,2.211,6378155.0000,0.0000,0.0000,0.0000,0.0000,0.0000,0.000,0.000,0.000,0.00000000000,0.00000000000,18.0000,2.211
180000,6378155.0000,0.0000,0.0000,0.0000,0.0000,0.0000,0.000,0.000,0.000,0.000,0.000,0.000,0.00000000000,0.00000000000,18.0000,0.000000000,0.000000000,0.000000000,0.000000,0.000000,0.000000,0.0000,0.0000,0.0000,6378155.0000,0.0000,0.0000,0.0000,0.0000,0.0000,0.000,0.000,0.000,0.00000000000,0.00000000000,18.0000,2.211,6378155.0000,0.0000,0.0000,0.0000,0.0000,0.0000,0.000,0.000,0.000,0.00000000000,0.00000000000,18.0000,2.211
181000,6378155.0000,0.0000,0.0000,0.0000,0.0000,0.0000,0.000,0.000,0.000,0.000,0.000,0.000,0.00000000000,0.00000000000,18.0000,0.000000000,0.000000000,0.000000000,0.000000,0.000000,0.000000,0.0000,0.0000,0.0000,6378155.0000,0.0000,0.0000,0.0000,0.0000,0.0000,0.000,0.000,0.000,0.00000000000,0.00000000000,18.0000,2.211,6378155.0000,0.0000,0.0000,0.0000,0.0000,0.0000,0.000,0.000,0.000,0.00000000000,0.00000000000,18.0000,2.211
182000,6378155.0000,0.0000,0.0000,0.0000,0.0000,0.0000,0.000,0.000,0.000,0.000,0.000,0.000,0.00000000000,0.00000000000,18.0000,0.000000000,0.000000000,0.000000000,0.000000,0.000000,0.000000,0.0000,0.0000,0.0000,6378155.0000,0.0000,0.0000,0.0000,0.0000,0.0000,0.000,0.000,0.000,0.00000000000,0.00000000000,18.0000,2.211,6378155.0000,0.0000,0.0000,0.0000,0.0000,0.0000,0.000,0.000,0.000,0.00000000000,0.00000000000,18.0000,2.211
183000,6378155.0000,0.0000,0.0000,0.0000,0.0000,0.0000,0.000,0.000,0.000,0.000,0.000,0.000,0.00000000000,0.00000000000,18.0000,0.000000000,0.000000000,0.000000000,0.000000,0.000000,0.000000,0.0000,0.0000,0.0000,6378155.0000,0.0000,0.0000,0.0000,0.0000,0.0000,0.000,0.000,0.000,0.00000000000,0.00000000000,18.0000,2.211,6378155.0000,0.0000,0.0000,0.0000,0.0000,0.0000,0.000,0.000,0.000,0.00000000000,0.00000000000,18.0000,2.211
184000,6378155.0000,0.0000,0.0000,0.0000,0.0000,0.0000,0.000,0.000,0.000,0.000,0.000,0.000,0.00000000000,0.00000000000,18.0000,0.000000000,0.000000000,0.000000000,0.000000,0.000000,0.000000,0.0000,0.0000,0.0000,6378155.0000,0.0000,0.0000,0.0000,0.0000,0.0000,0.000,0.000,0.000,0.00000000000,0.00000000000,18.0000,2.211,6378155.0000,0.0000,0.0000,0.0000,0.0000,0.0000,0.000,0.000,0.000,0.00000000000,0.00000000000,18.0000,2.211
185000,6378155.0000,0.0000,0.0000,0.0000,0.0000,0.0000,0.000,0.000,0.000,0.000,0.000,0.000,0.00000000000,0.00000000000,18.0000,0.000000000,0.000000000,0.000000000,0.000000,0.000000,0.000000,0.0000,0.0000,0.0000,6378155.0000,0.0000,0.0000,0.0000,0.0000,0.0000,0.000,0.000,0.000,0.00000000000,0.00000000000,18.0000,2.210,6378155.0000,0.0000,0.0000,0.0000,0.0000,0.0000,0.000,0.000,0.000,0.00000000000,0.00000000000,18.0000,2.210
186000,6378155.0000,0.0000,0.0000,0.0000,0.0000,0.0000,0.000,0.000,0.000,0.000,0.000,0.000,0.00000000000,0.00000000000,18.0000,0.000000000,0.000000000,0.000000000,0.000000,0.000000,0.000000,0.0000,0.0000,0.0000,6378155.0000,0.0000,0.0000,0.0000,0.0000,0.0000,0.000,0.000,0.000,0.00000000000,0.00000000000,18.0000,2.210,6378155.0000,0.0000,0.0000,0.0000,0.0000,0.0000,0.000,0.000,0.000,0.00000000000,0.00000000000,18.0000,2.210
187000,6378155.0000,0.0000,0.0000,0.0000,0.0000,0.0000,0.000,0.000,0.000,0.000,0.000,0.000,0.00000000000,0.00000000000,18.0000,0.000000000,0.000000000,0.000000000,0.000000,0.000000,0.000000,0.0000,0.0000,0.0000,6378155.0000,0.0000,0.0000,0.0000,0.0000,0.0000,0.000,0.000,0.000,0.00000000000,0.00000000000,18.0000,2.210,6378155.0000,0.0000,0.0000,0.0000,0.0000,0.0000,0.000,0.000,0.000,0.00000000000,0.00000000000,18.0000,2.210
188000,6378155.0000,0.0000,0.0000,0.0000,0.0000,0.0000,0.000,0.000,0.000,0.000,0.000,0.000,0.00000000000,0.00000000000,18.0000,0.000000000,0.000000000,0.000000000,0.000000,0.000000,0.000000,0.0000,0.0000,0.0000,6378155.0000,0.0000,0.0000,0.0000,0.0000,0.0000,0.000,0.000,0.000,0.00000000000,0.00000000000,18.0000,2.210,6378155.0000,0.0000,0.0000,0.0000,0.0000,0.0000,0.000,0.000,0.000,0.00000000000,0.00000000000,18.0000,2.210
189000,6378155.0000,0.0000,0.0000,0.0000,0.0000,0.0000,0.000,0.000,0.000,0.000,0.000,0.000,0.00000000000,0.00000000000,18.0000,0.000000000,0.000000000,0.000000000,0.000000,0.000000,0.000000,0.0000,0.0000,0.0000,6378155.0000,0.0000,0.0000,0.0000,0.0000,0.0000,0.000,0.000,0.000,0.00000000000,0.00000000000,18.0000,2.210,6378155.0000,0.0000,0.0000,0.0000,0.0000,0.0000,0.000,0.000,0.000,0.00000000000,0.00000000000,18.0000,2.210
190000,6378155.0000,0.0000,0.0000,0.0000,0.0000,0.0000,0.000,0.000,0.000,0.000,0.000,0.000,0.00000000000,0.00000000000,18.0000,0.000000000,0.000000000,0.000000000,0.000000,0.000000,0.000000,0.0000,0.0000,0.0000,6378155.0000,0.0000,0.0000,0.0000,0.0000,0.0000,0.000,0.000,0.000,0.00000000000,0.00000000000,18.0000,2.210,6378155.0000,0.0000,0.0000,0.0000,0.0000,0.0000,0.000,0.000,0.000,0.00000000000,0.00000000000,18.0000,2.210
191000,6378155.0000,0.0000,0.0000,0.0000,0.0000,0.0000,0.000,0.000,0.000,0.000,0.000,0.000,0.00000000000,0.00000000000,18.0000,0.000000000,0.000000000,0.000000000,0.000000,0.000000,0.000000,0.0000,0.0000,0.0000,6378155.0000,0.0000,0.0000,0.0000,0.0000,0.0000,0.000,0.000,0.000,0.00000000000,0.00000000000,18.0000,2.210,6378155.0000,0.0000,0.0000,0.0000,0.0000,0.0000,0.000,0.000,0.000,0.00000000000,0.00000000000,18.0000,2.210
192000,6378155.0000,0.0000,0.0000,0.0000,0.0000,0.0000,0.000,0.000,0.000,0.000,0.000,0.000,0.00000000000,0.00000000000,18.0000,0.000000000,0.000000000,0.000000000,0.000000,0.000000,0.000000,0.0000,0.0000,0.0000,6378155.0000,0.0000,0.0000,0.0000,0.0000,0.0000,0.000,0.000,0.000,0.00000000000,0.00000000000,18.0000,2.210,6378155.0000,0.0000,0.0000,0.0000,0.0000,0.0000,0.000,0.000,0.000,0.00000000000,0.00000000000,18.0000,2.210
193000,6378155.0000,0.0000,0.0000,0.0000,0.0000,0.0000,0.000,0.000,0.000,0.000,0.000,0.000,0.00000000000,0.00000000000,18.0000,0.000000000,0.000000000,0.000000000,0.000000,0.000000,0.000000,0.0000,0.0000,0.0000,6378155.0000,0.0000,0.0000,0.0000,0.0000,0.0000,0.000,0.000,0.000,0.00000000000,0.00000000000,18.0000,2.210,6378155.0000,0.0000,0.0000,0.0000,0.0000,0.0000,0.000,0.000,0.000,0.00000000000,0.00000000000,18.0000,2.210
194000,6378155.0000,0.0000,0.0000,0.0000,0.0000,0.0000,0.000,0.000,0.000,0.000,0.000,0.000,0.00000000000,0.00000000000,18.0000,0.000000000,0.000000000,0.000000000,0.000000,0.000000,0.000000,0.0000,0.0000,0.0000,6378155.0000,0.0000,0.0000,0.0000,0.0000,0.0000,0.000,0.000,0.000,0.00000000000,0.00000000000,18.0000,2.210,6378155.0000,0.0000,0.0000,0.0000,0.0000,0.0000,0.000,0.000,0.000,0.00000000000,0.00000000000,18.0000,2.210
195000,6378155.0000,0.0000,0.0000,0.0000,0.0000,0.0000,0.000,0.000,0.000,0.000,0.000,0.000,0.00000000000,0.00000000000,18.0000,0.000000000,0.000000000,0.000000000,0.000000,0.000000,0.000000,0.0000,0.0000,0.0000,6378155.0000,0.0000,0.0000,0.0000,0.0000,0.0000,0.000,0.000,0.000,0.00000000000,0.00000000000,18.0000,2.210,6378155.0000,0.0000,0.0000,0.0000,0.0000,0.0000,0.000,0.000,0.000,0.00000000000,0.00000000000,18.0000,2.210
196000,6378155.0000,0.0000,0.0000,0.0000,0.0000,0.0000,0.000,0.000,0.000,0.000,0.000,0.000,0.00000000000,0.00000000000,18.0000,0.000000000,0.000000000,0.000000000,0.000000,0.000000,0.000000,0.0000,0.0000,0.0000,6378155.0000,0.0000,0.0000,0.0000,0.0000,0.0000,0.000,0.000,0.000,0.00000000000,0.00000000000,18.0000,2.210,6378155.0000,0.0000,0.0000,0.0000,0.0000,0.0000,0.000,0.000,0.000,0.00000000000,0.00000000000,18.0000,2.210
197000,6378155.0000,0.0000,0.0000,0.0000,0.0000,0.0000,0.000,0.000,0.000,0.000,0.000,0.000,0.00000000000,0.00000000000,18.0000,0.000000000,0.000000000,0.000000000,0.000000,0.000000,0.000000,0.0000,0.0000,0.0000,6378155.0000,0.0000,0.0000,0.0000,0.0000,0.0000,0.000,0.000,0.000,0.00000000000,0.00000000000,18.0000,2.209,6378155.0000,0.0000,0.0000,0.0000,0.0000,0.0000,0.000,0.000,0.000,0.00000000000,0.00000000000,18.0000,2.209
198000,6378155.0000,0.0000,0.0000,0.0000,0.0000,0.0000,0.000,0.000,0.000,0.000,0.000,0.000,0.00000000000,0.00000000000,18.0000,0.000000000,0.000000000,0.000000000,0.000000,0.000000,0.000000,0.0000,0.0000,0.0000,6378155.0000,0.0000,0.0000,0.0000,0.0000,0.0000,0.000,0.000,0.000,0.00000000000,0.00000000000,18.0000,2.209,6378155.0000,0.0000,0.0000,0.0000,0.0000,0.0000,0.000,0.000,0.000,0.00000000000,0.00000000000,18.0000,2.209
199000,6378155.0000,0.0000,0.0000,0.0000,0.0000,0.0000,0.000,0.000,0.000,0.000,0.000,0.000,0.00000000000,0.00000000000,18.0000,0.000000000,0.000000000,0.000000000,0.000000,0.000000,0.000000,0.0000,0.0000,0.0000,6378155.0000,0.0000,0.0000,0.0000,0.0000,0.0000,0.000,0.000,0.000,0.00000000000,0.00000000000,18.0000,2.209,6378155.0000,0.0000,0.0000,0.0000,0.0000,0.0000,0.000,0.000,0.000,0.00000000000,0.00000000000,18.0000,2.209
200000,6378155.0000,0.0000,0.0000,0.0000,0.0000,0.0000,0.000,0.000,0.000,0.000,0.000,0.000,0.00000000000,0.00000000000,18.0000,0.000000000,0.000000000,0.000000000,0.000000,0.000000,0.000000,0.0000,0.0000,0.0000,6378155.0000,0.0000,0.0000,0.0000,0.0000,0.0000,0.000,0.000,0.000,0.00000000000,0.00000000000,18.0000,2.209,6378155.0000,0.0000,0.0000,0.0000,0.0000,0.0000,0.000,0.000,0.000,0.00000000000,0.00000000000,18.0000,2.209
201000,6378155.0000,0.0000,0.0000,0.0000,0.0000,0.0000,0.000,0.000,0.000,0.000,0.000,0.000,0.00000000000,0.00000000000,18.0000,0.000000000,0.000000000,0.000000000,0.000000,0.000000,0.000000,0.0000,0.0000,0.0000,6378155.0000,0.0000,0.0000,0.0000,0.0000,0.0000,0.000,0.000,0.000,0.00000000000,0.00000000000,18.0000,2.209,6378155.0000,0.0000,0.0000,0.0000,0.0000,0.0000,0.000,0.000,0.000,0.00000000000,0.00000000000,18.0000,2.209
202000,6378155.0000,0.0000,0.0000,0.0000,0.0000,0.0000,0.000,0.000,0.000,0.000,0.000,0.000,0.00000000000,0.00000000000,18.0000,0.000000000,0.000000000,0.000000000,0.000000,0.000000,0.000000,0.0000,0.0000,0.0000,6378155.0000,0.0000,0.0000,0.0000,0.0000,0.0000,0.000,0.000,0.000,0.00000000000,0.00000000000,18.0000,2.209,6378155.0000,0.0000,0.0000,0.0000,0.0000,0.0000,0.000,0.000,0.000,0.00000000000,0.00000000000,18.0000,2.209
203000,6378155.0000,0.0000,0.0000,0.0000,0.0000,0.0000,0.000,0.000,0.000,0.000,0.000,0.000,0.00000000000,0.00000000000,18.0000,0.000000000,0.000000000,0.000000000,0.000000,0.000000,0.000000,0.0000,0.0000,0.0000,6378155.0000,0.0000,0.0000,0.0000,0.0000,0.0000,0.000,0.000,0.000,0.00000000000,0.00000000000,18.0000,2.209,6378155.0000,0.0000,0.0000,0.0000,0.0000,0.0000,0.000,0.000,0.000,0.00000000000,0.00000000000,18.0000,2.209
204000,6378155.0000,0.0000,0.0000,0.0000,0.0000,0.0000,0.000,0.000,0.000,0.000,0.000,0.000,0.00000000000,0.00000000000,18.0000,0.000000000,0.000000000,0.000000000,0.000000,0.000000,0.000000,0.0000,0.0000,0.0000,6378155.0000,0.0000,0.0000,0.0000,0.0000,0.0000,0.000,0.000,0.000,0.00000000000,0.00000000000,18.0000,2.209,6378155.0000,0.0000,0.0000,0.0000,0.0000,0.0000,0.000,0.000,0.000,0.00000000000,0.00000000000,18.0000,2.209
205000,6378155.0000,0.0000,0.0000,0.0000,0.0000,0.0000,0.000,0.000,0.000,0.000,0.000,0.000,0.00000000000,0.00000000000,18.0000,0.000000000,0.000000000,0.000000000,0.000000,0.000000,0.000000,0.0000,0.0000,0.0000,6378155.0000,0.0000,0.0000,0.0000,0.0000,0.0000,0.000,0.000,0.000,0.00000000000,0.00000000000,18.0000,2.209,6378155.0000,0.0000,0.0000,0.0000,0.0000,0.0000,0.000,0.000,0.000,0.00000000000,0.00000000000,18.0000,2.209
206000,6378155.0000,0.0000,0.0000,0.0000,0.0000,0.0000,0.000,0.000,0.000,0.000,0.000,0.000,0.00000000000,0.00000000000,18.0000,0.000000000,0.000000000,0.000000000,0.000000,0.000000,0.000000,0.0000,0.0000,0.0000,6378155.0000,0.0000,0.0000,0.0000,0.0000,0.0000,0.000,0.000,0.000,0.00000000000,0.00000000000,18.0000,2.209,6378155.0000,0.0000,0.0000,0.0000,0.0000,0.0000,0.000,0.000,0.000,0.00000000000,0.00000000000,18.0000,2.209
207000,6378155.0000,0.0000,0.0000,0.0000,0.0000,0.0000,0.000,0.000,0.000,0.000,0.000,0.000,0.00000000000,0.00000000000,18.0000,0.000000000,0.000000000,0.000000000,0.000000,0.000000,0.000000,0.0000,0.0000,0.0000,6378155.0000,0.0000,0.0000,0.0000,0.0000,0.0000,0.000,0.000,0.000,0.00000000000,0.00000000000,18.0000,2.209,6378155.0000,0.0000,0.0000,0.0000,0.0000,0.0000,0.000,0.000,0.000,0.00000000000,0.00000000000,18.0000,2.209
208000,6378155.0000,0.0000,0.0000,0.0000,0.0000,0.0000,0.000,0.000,0.000,0.000,0.000,0.000,0.00000000000,0.00000000000,18.0000,0.000000000,0.000000000,0.000000000,0.000000,0.000000,0.000000,0.0000,0.0000,0.0000,6378155.0000,0.0000,0.0000,0.0000,0.0000,0.0000,0.000,0.000,0.000,0.00000000000,0.00000000000,18.0000,2.209,6378155.0000,0.0000,0.0000,0.0000,0.0000,0.0000,0.000,0.000,0.000,0.00000000000,0.00000000000,18.0000,2.209
209000,6378155.0000,0.0000,0.0000,0.0000,0.0000,0.0000,0.000,0.000,0.000,0.000,0.000,0.000,0.00000000000,0.00000000000,18.0000,0.000000000,0.000000000,0.000000000,0.000000,0.000000,0.000000,0.0000,0.0000,0.0000,6378155.0000,0.0000,0.0000,0.0000,0.0000,0.0000,0.000,0.000,0.000,0.00000000000,0.00000000000,18.0000,2.208,6378155.0000,0.0000,0.0000,0.0000,0.0000,0.0000,0.000,0.000,0.000,0.00000000000,0.00000000000,18.0000,2.208
210000,6378155.0000,0.0000,0.0000,0.0000,0.0000,0.0000,0.000,0.000,0.000,0.000,0.000,0.000,0.00000000000,0.00000000000,18.0000,0.000000000,0.000000000,0.000000000,0.000000,0.000000,0.000000,0.0000,0.0000,0.0000,6378155.0000,0.0000,0.0000,0.0000,0.0000,0.0000,0.000,0.000,0.000,0.00000000000,0.00000000000,18.0000,2.208,6378155.0000,0.0000,0.0000,0.0000,0.0000,0.0000,0.000,0.000,0.000,0.00000000000,0.00000000000,18.0000,2.208
211000,6378155.0000,0.0000,0.0000,0.0000,0.0000,0.0000,0.000,0.000,0.000,0.000,0.000,0.000,0.00000000000,0.00000000000,18.0000,0.000000000,0.000000000,0.000000000,0.000000,0.000000,0.000000,0.0000,0.0000,0.0000,6378155.0000,0.0000,0.0000,0.0000,0.0000,0.0000,0.000,0.000,0.000,0.00000000000,0.00000000000,18.0000,2.208,6378155.0000,0.0000,0.0000,0.0000,0.0000,0.0000,0.000,0.000,0.000,0.00000000000,0.00000000000,18.0000,2.208
212000,6378155.0000,0.0000,0.0000,0.0000,0.0000,0.0000,0.000,0.000,0.000,0.000,0.000,0.000,0.00000000000,0.00000000000,18.0000,0.000000000,0.000000000,0.000000000,0.000000,0.000000,0.000000,0.0000,0.0000,0.0000,6378155.0000,0.0000,0.0000,0.0000,0.0000,0.0000,0.000,0.000,0.000,0.00000000000,0.00000000000,18.0000,2.208,6378155.0000,0.0000,0.0000,0.0000,0.0000,0.0000,0.000,0.000,0.000,0.00000000000,0.00000000000,18.0000,2.208
213000,6378155.0000,0.0000,0.0000,0.0000,0.0000,0.0000,0.000,0.000,0.000,0.000,0.000,0.000,0.00000000000,0.00000000000,18.0000,0.000000000,0.000000000,0.000000000,0.000000,0.000000,0.000000,0.0000,0.0000,0.0000,6378155.0000,0.0000,0.0000,0.0000,0.0000,0.0000,0.000,0.000,0.000,0.00000000000,0.00000000000,18.0000,2.208,6378155.0000,0.0000,0.0000,0.0000,0.0000,0.0000,0.000,0.000,0.000,0.00000000000,0.00000000000,18.0000,2.208
214000,6378155.0000,0.0000,0.0000,0.0000,0.0000,0.0000,0.000,0.000,0.000,0.000,0.000,0.000,0.00000000000,0.00000000000,18.0000,0.000000000,0.000000000,0.000000000,0.000000,0.000000,0.000000,0.0000,0.0000,0.0000,6378155.0000,0.0000,0.0000,0.0000,0.0000,0.0000,0.000,0.000,0.000,0.00000000000,0.00000000000,18.0000,2.208,6378155.0000,0.0000,0.0000,0.0000,0.0000,0.0000,0.000,0.000,0.000,0.00000000000,0.00000000000,18.0000,2.208
215000,6378155.0000,0.0000,0.0000,0.0000,0.0000,0.0000,0.000,0.000,0.000,0.000,0.000,0.000,0.00000000000,0.00000000000,18.0000,0.000000000,0.000000000,0.000000000,0.000000,0.000000,0.000000,0.0000,0.0000,0.0000,6378155.0000,0.0000,0.0000,0.0000,0.0000,0.0000,0.000,0.000,0.000,0.00000000000,0.00000000000,18.0000,2.208,6378155.0000,0.0000,0.0000,0.0000,0.0000,0.0000,0.000,0.000,0.000,0.00000000000,0.00000000000,18.0000,2.208
216000,6378155.0000,0.0000,0.0000,0.0000,0.0000,0.0000,0.000,0.000,0.000,0.000,0.000,0.000,0.00000000000,0.00000000000,18.0000,0.000000000,0.000000000,0.000000000,0.000000,0.000000,0.000000,0.0000,0.0000,0.0000,6378155.0000,0.0000,0.0000,0.0000,0.0000,0.0000,0.000,0.000,0.000,0.00000000000,0.00000000000,18.0000,2.208,6378155.0000,0.0000,0.0000,0.0000,0.0000,0.0000,0.000,0.000,0.000,0.00000000000,0.00000000000,18.0000,2.208
217000,6378155.0000,0.0000,0.0000,0.0000,0.0000,0.0000,0.000,0.000,0.000,0.000,0.000,0.000,0.00000000000,0.00000000000,18.0000,0.000000000,0.000000000,0.000000000,0.000000,0.000000,0.000000,0.0000,0.0000,0.0000,6378155.0000,0.0000,0.0000,0.0000,0.0000,0.0000,0.000,0.000,0.000,0.00000000000,0.00000000000,18.0000,2.208,6378155.0000,0.0000,0.0000,0.0000,0.0000,0.0000,0.000,0.000,0.000,0.00000000000,0.00000000000,18.0000,2.208
218000,6378155.0000,0.0000,0.0000,0.0000,0.0000,0.0000,0.000,0.000,0.000,0.000,0.000,0.000,0.00000000000,0.00000000000,18.0000,0.000000000,0.000000000,0.000000000,0.000000,0.000000,0.000000,0.0000,0.0000,0.0000,6378155.0000,0.0000,0.0000,0.0000,0.0000,0.0000,0.000,0.000,0.000,0.00000000000,0.00000000000,18.0000,2.208,6378155.0000,0.0000,0.0000,0.0000,0.0000,0.0000,0.000,0.000,0.000,0.00000000000,0.00000000000,18.0000,2.208
219000,6378155.0000,0.0000,0.0000,0.0000,0.0000,0.0000,0.000,0.000,0.000,0.000,0.000,0.000,0.00000000000,0.00000000000,18.0000,0.000000000,0.000000000,0.000000000,0.000000,0.000000,0.000000,0.0000,0.0000,0.0000,6378155.0000,0.0000,0.0000,0.0000,0.0000,0.0000,0.000,0.000,0.000,0.00000000000,0.00000000000,18.0000,2.208,6378155.0000,0.0000,0.0000,0.0000,0.0000,0.0000,0.000,0.000,0.000,0.00000000000,0.00000000000,18.0000,2.208
220000,6378155.0000,0.0000,0.0000,0.0000,0.0000,0.0000,0.000,0.000,0.000,0.000,0.000,0.000,0.00000000000,0.00000000000,18.0000,0.000000000,0.000000000,0.000000000,0.000000,0.000000,0.000000,0.0000,0.0000,0.0000,6378155.0000,0.0000,0.0000,0.0000,0.0000,0.0000,0.000,0.000,0.000,0.00000000000,0.00000000000,18.0000,2.208,6378155.0000,0.0000,0.0000,0.0000,0.0000,0.0000,0.000,0.000,0.000,0.00000000000,0.00000000000,18.0000,2.208
221000,6378155.0000,0.0000,0.0000,0.0000,0.0000,0.0000,0.000,0.000,0.000,0.000,0.000,0.000,0.00000000000,0.00000000000,18.0000,0.000000000,0.000000000,0.000000000,0.000000,0.000000,0.000000,0.0000,0.0000,0.0000,6378155.0000,0.0000,0.0000,0.0000,0.0000,0.0000,0.000,0.000,0.000,0.00000000000,0.00000000000,18.0000,2.207,6378155.0000,0.0000,0.0000,0.0000,0.0000,0.0000,0.000,0.000,0.000,0.00000000000,0.00000000000,18.0000,2.207
222000,6378155.0000,0.0000,0.0000,0.0000,0.0000,0.0000,0.000,0.000,0.000,0.000,0.000,0.000,0.00000000000,0.00000000000,18.0000,0.000000000,0.000000000,0.000000000,0.000000,0.000000,0.000000,0.0000,0.0000,0.0000,6378155.0000,0.0000,0.0000,0.0000,0.0000,0.0000,0.000,0.000,0.000,0.00000000000,0.00000000000,18.0000,2.207,6378155.0000,0.0000,0.0000,0.0000,0.0000,0.0000,0.000,0.000,0.000,0.00000000000,0.00000000000,18.0000,2.207
223000,6378155.0000,0.0000,0.0000,0.0000,0.0000,0.0000,0.000,0.000,0.000,0.000,0.000,0.000,0.00000000000,0.00000000000,18.0000,0.000000000,0.000000000,0.000000000,0.000000,0.000000,0.000000,0.0000,0.0000,0.0000,6378155.0000,0.0000,0.0000,0.0000,0.0000,0.0000,0.000,0.000,0.000,0.00000000000,0.00000000000,18.0000,2.207,6378155.0000,0.0000,0.0000,0.0000,0.0000,0.0000,0.000,0.000,0.000,0.00000000000,0.00000000000,18.0000,2.207
224000,6378155.0000,0.0000,0.0000,0.0000,0.0000,0.0000,0.000,0.000,0.000,0.000,0.000,0.000,0.00000000000,0.00000000000,18.0000,0.000000000,0.000000000,0.000000000,0.000000,0.000000,0.000000,0.0000,0.0000,0.0000,6378155.0000,0.0000,0.0000,0.0000,0.0000,0.0000,0.000,0.000,0.000,0.00000000000,0.00000000000,18.0000,2.207,6378155.0000,0.0000,0.0000,0.0000,0.0000,0.0000,0.000,0.000,0.000,0.00000000000,0.00000000000,18.0000,2.207
225000,6378155.0000,0.0000,0.0000,0.0000,0.0000,0.0000,0.000,0.000,0.000,0.000,0.000,0.000,0.00000000000,0.00000000000,18.0000,0.000000000,0.000000000,0.000000000,0.000000,0.000000,0.000000,0.0000,0.0000,0.0000,6378155.0000,0.0000,0.0000,0.0000,0.0000,0.0000,0.000,0.000,0.000,0.00000000000,0.00000000000,18.0000,2.207,6378155.0000,0.0000,0.0000,0.0000,0.0000,0.0000,0.000,0.000,0.000,0.00000000000,0.00000000000,18.0000,2.207
226000,6378155.0000,0.0000,0.0000,0.0000,0.0000,0.0000,0.000,0.000,0.000,0.000,0.000,0.000,0.00000000000,0.00000000000,18.0000,0.000000000,0.000000000,0.000000000,0.000000,0.000000,0.000000,0.0000,0.0000,0.0000,6378155.0000,0.0000,0.0000,0.0000,0.0000,0.0000,0.000,0.000,0.000,0.00000000000,0.00000000000,18.0000,2.207,6378155.0000,0.0000,0.0000,0.0000,0.0000,0.0000,0.000,0.000,0.000,0.00000000000,0.00000000000,18.0000,2.207
227000,6378155.0000,0.0000,0.0000,0.0000,0.0000,0.0000,0.000,0.000,0.000,0.000,0.000,0.000,0.00000000000,0.00000000000,18.0000,0.000000000,0.000000000,0.000000000,0.000000,0.000000,0.000000,0.0000,0.0000,0.0000,6378155.0000,0.0000,0.0000,0.0000,0.0000,0.0000,0.000,0.000,0.000,0.00000000000,0.00000000000,18.0000,2.207,6378155.0000,0.0000,0.0000,0.0000,0.0000,0.0000,0.000,0.000,0.000,0.00000000000,0.00000000000,18.0000,2.207
228000,6378155.0000,0.0000,0.0000,0.0000,0.0000,0.0000,0.000,0.000,0.000,0.000,0.000,0.000,0.00000000000,0.00000000000,18.0000,0.000000000,0.000000000,0.000000000,0.000000,0.000000,0.000000,0.0000,0.0000,0.0000,6378155.0000,0.0000,0.0000,0.0000,0.0000,0.0000,0.000,0.000,0.000,0.00000000000,0.00000000000,18.0000,2.207,6378155.0000,0.0000,0.0000,0.0000,0.0000,0.0000,0.000,0.000,0.000,0.00000000000,0.00000000000,18.0000,2.207
229000,6378155.0000,0.0000,0.0000,0.0000,0.0000,0.0000,0.000,0.000,0.000,0.000,0.000,0.000,0.00000000000,0.00000000000,18.0000,0.000000000,0.000000000,0.000000000,0.000000,0.000000,0.000000,0.0000,0.0000,0.0000,6378155.0000,0.0000,0.0000,0.0000,0.0000,0.0000,0.000,0.000,0.000,0.00000000000,0.00000000000,18.0000,2.207,6378155.0000,0.0000,0.0000,0.0000,0.0000,0.0000,0.000,0.000,0.000,0.00000000000,0.00000000000,18.0000,2.207
230000,6378155.0000,0.0000,0.0000,0.0000,0.0000,0.0000,0.000,0.000,0.000,0.000,0.000,0.000,0.00000000000,0.00000000000,18.0000,0.000000000,0.000000000,0.000000000,0.000000,0.000000,0.000000,0.0000,0.0000,0.0000,6378155.0000,0.0000,0.0000,0.0000,0.0000,0.0000,0.000,0.000,0.000,0.00000000000,0.00000000000,18.0000,2.207,6378155.0000,0.0000,0.0000,0.0000,0.0000,0.0000,0.000,0.000,0.000,0.00000000000,0.00000000000,18.0000,2.207
231000,6378155.0000,0.0000,0.0000,0.0000,0.0000,0.0000,0.000,0.000,0.000,0.000,0.000,0.000,0.00000000000,0.00000000000,18.0000,0.000000000,0.000000000,0.000000000,0.000000,0.000000,0.000000,0.0000,0.0000,0.0000,6378155.0000,0.0000,0.0000,0.0000,0.0000,0.0000,0.000,0.000,0.000,0.00000000000,0.00000000000,18.0000,2.207,6378155.0000,0.0000,0.0000,0.0000,0.0000,0.0000,0.000,0.000,0.000,0.00000000000,0.00000000000,18.0000,2.207
232000,6378155.0000,0.0000,0.0000,0.0000,0.0000,0.0000,0.000,0.000,0.000,0.000,0.000,0.000,0.00000000000,0.00000000000,18.0000,0.000000000,0.000000000,0.000000000,0.000000,0.000000,0.000000,0.0000,0.0000,0.0000,6378155.0000,0.0000,0.0000,0.0000,0.0000,0.0000,0.000,0.000,0.000,0.00000000000,0.00000000000,18.0000,2.207,6378155.0000,0.0000,0.0000,0.0000,0.0000,0.0000,0.000,0.000,0.000,0.00000000000,0.00000000000,18.0000,2.207
233000,6378155.0000,0.0000,0.0000,0.0000,0.0000,0.0000,0.000,0.000,0.000,0.000,0.000,0.000,0.00000000000,0.00000000000,18.0000,0.000000000,0.000000000,0.000000000,0.000000,0.000000,0.000000,0.0000,0.0000,0.0000,6378155.0000,0.0000,0.0000,0.0000,0.0000,0.0000,0.000,0.000,0.000,0.00000000000,0.00000000000,18.0000,2.206,6378155.0000,0.0000,0.0000,0.0000,0.0000,0.0000,0.000,0.000,0.000,0.00000000000,0.00000000000,18.0000,2.206
234000,6378155.0000,0.0000,0.0000,0.0000,0.0000,0.0000,0.000,0.000,0.000,0.000,0.000,0.000,0.00000000000,0.00000000000,18.0000,0.000000000,0.000000000,0.000000000,0.000000,0.000000,0.000000,0.0000,0.0000,0.0000,6378155.0000,0.0000,0.0000,0.0000,0.0000,0.0000,0.000,0.000,0.000,0.00000000000,0.00000000000,18.0000,2.206,6378155.0000,0.0000,0.0000,0.0000,0.0000,0.0000,0.000,0.000,0.000,0.00000000000,0.00000000000,18.0000,2.206
235000,6378155.0000,0.0000,0.0000,0.0000,0.0000,0.0000,0.000,0.000,0.000,0.000,0.000,0.000,0.00000000000,0.00000000000,18.0000,0.000000000,0.000000000,0.000000000,0.000000,0.000000,0.000000,0.0000,0.0000,0.0000,6378155.0000,0.0000,0.0000,0.0000,0.0000,0.0000,0.000,0.000,0.000,0.00000000000,0.00000000000,18.0000,2.206,6378155.0000,0.0000,0.0000,0.0000,0.0000,0.0000,0.000,0.000,0.000,0.00000000000,0.00000000000,18.0000,2.206
236000,6378155.0000,0.0000,0.0000,0.0000,0.0000,0.0000,0.000,0.000,0.000,0.000,0.000,0.000,0.00000000000,0.00000000000,18.0000,0.000000000,0.000000000,0.000000000,0.000000,0.000000,0.000000,0.0000,0.0000,0.0000,6378155.0000,0.0000,0.0000,0.0000,0.0000,0.0000,0.000,0.000,0.000,0.00000000000,0.00000000000,18.0000,2.206,6378155.0000,0.0000,0.0000,0.0000,0.0000,0.0000,0.000,0.000,0.000,0.00000000000,0.00000000000,18.0000,2.206
237000,6378155.0000,0.0000,0.0000,0.0000,0.0000,0.0000,0.000,0.000,0.000,0.000,0.000,0.000,0.00000000000,0.00000000000,18.0000,0.000000000,0.000000000,0.000000000,0.000000,0.000000,0.000000,0.0000,0.0000,0.0000,6378155.0000,0.0000,0.0000,0.0000,0.0000,0.0000,0.000,0.000,0.000,0.00000000000,0.00000000000,18.0000,2.206,6378155.0000,0.0000,0.0000,0.0000,0.0000,0.0000,0.000,0.000,0.000,0.00000000000,0.00000000000,18.0000,2.206
238000,6378155.0000,0.0000,0.0000,0.0000,0.0000,0.0000,0.000,0.000,0.000,0.000,0.000,0.000,0.00000000000,0.00000000000,18.0000,0.000000000,0.000000000,0.000000000,0.000000,0.000000,0.000000,0.0000,0.0000,0.0000,6378155.0000,0.0000,0.0000,0.0000,0.0000,0.0000,0.000,0.000,0.000,0.00000000000,0.00000000000,18.0000,2.206,6378155.0000,0.0000,0.0000,0.0000,0.0000,0.0000,0.000,0.000,0.000,0.00000000000,0.00000000000,18.0000,2.206
239000,6378155.0000,0.0000,0.0000,0.0000,0.0000,0.0000,0.000,0.000,0.000,0.000,0.000,0.000,0.00000000000,0.00000000000,18.0000,0.000000000,0.000000000,0.000000000,0.000000,0.000000,0.000000,0.0000,0.0000,0.0000,6378155.0000,0.0000,0.0000,0.0000,0.0000,0.0000,0.000,0.000,0.000,0.00000000000,0.00000000000,18.0000,2.206,6378155.0000,0.0000,0.0000,0.0000,0.0000,0.0000,0.000,0.000,0.000,0.00000000000,0.00000000000,18.0000,2.206
240000,6378155.0000,0.0000,0.0000,0.0000,0.0000,0.0000,0.000,0.000,0.000,0.000,0.000,0.000,0.00000000000,0.00000000000,18.0000,0.000000000,0.000000000,0.000000000,0.000000,0.000000,0.000000,0.0000,0.0000,0.0000,6378155.0000,0.0000,0.0000,0.0000,0.0000,0.0000,0.000,0.000,0.000,0.00000000000,0.00000000000,18.0000,2.206,6378155.0000,0.0000,0.0000,0.0000,0.0000,0.0000,0.000,0.000,0.000,0.00000000000,0.00000000000,18.0000,2.206
241000,6378155.0000,0.0000,0.0000,0.0000,0.0000,0.0000,0.000,0.000,0.000,0.000,0.000,0.000,0.00000000000,0.00000000000,18.0000,0.000000000,0.000000000,0.000000000,0.000000,0.000000,0.000000,0.0000,0.0000,0.0000,6378155.0000,0.0000,0.0000,0.0000,0.0000,0.0000,0.000,0.000,0.000,0.00000000000,0.00000000000,18.0000,2.206,6378155.0000,0.0000,0.0000,0.0000,0.0000,0.0000,0.000,0.000,0.000,0.00000000000,0.00000000000,18.0000,2.206
242000,6378155.0000,0.0000,0.0000,0.0000,0.0000,0.0000,0.000,0.000,0.000,0.000,0.000,0.000,0.00000000000,0.00000000000,18.0000,0.000000000,0.000000000,0.000000000,0.000000,0.000000,0.000000,0.0000,0.0000,0.0000,6378155.0000,0.0000,0.0000,0.0000,0.0000,0.0000,0.000,0.000,0.000,0.00000000000,0.00000000000,18.0000,2.206,6378155.0000,0.0000,0.0000,0.0000,0.0000,0.0000,0.000,0.000,0.000,0.00000000000,0.00000000000,18.0000,2.206
243000,6378155.0000,0.0000,0.0000,0.0000,0.0000,0.0000,0.000,0.000,0.000,0.000,0.000,0.000,0.00000000000,0.00000000000,18.0000,0.000000000,0.000000000,0.000000000,0.000000,0.000000,0.000000,0.0000,0.0000,0.0000,6378155.0000,0.0000,0.0000,0.0000,0.0000,0.0000,0.000,0.000,0.000,0.00000000000,0.00000000000,18.0000,2.206,6378155.0000,0.0000,0.0000,0.0000,0.0000,0.0000,0.000,0.000,0.000,0.00000000000,0.00000000000,18.0000,2.206
244000,6378155.0000,0.0000,0.0000,0.0000,0.0000,0.0000,0.000,0.000,0.000,0.000,0.000,0.000,0.00000000000,0.00000000000,18.0000,0.000000000,0.000000000,0.000000000,0.000000,0.000000,0.000000,0.0000,0.0000,0.0000,6378155.0000,0.0000,0.0000,0.0000,0.0000,0.0000,0.000,0.000,0.000,0.00000000000,0.00000000000,18.0000,2.206,6378155.0000,0.0000,0.0000,0.0000,0.0000,0.0000,0.000,0.000,0.000,0.00000000000,0.00000000000,18.0000,2.206
245000,6378155.0000,0.0000,0.0000,0.0000,0.0000,0.0000,0.000,0.000,0.000,0.000,0.000,0.000,0.00000000000,0.00000000000,18.0000,0.000000000,0.000000000,0.000000000,0.000000,0.000000,0.000000,0.0000,0.0000,0.0000,6378155.0000,0.0000,0.0000,0.0000,0.0000,0.0000,0.000,0.000,0.000,0.00000000000,0.00000000000,18.0000,2.205,6378155.0000,0.0000,0.0000,0.0000,0.0000,0.0000,0.000,0.000,0.000,0.00000000000,0.00000000000,18.0000,2.205
246000,6378155.0000,0.0000,0.0000,0.0000,0.0000,0.0000,0.000,0.000,0.000,0.000,0.000,0.000,0.00000000000,0.00000000000,18.0000,0.000000000,0.000000000,0.000000000,0.000000,0.000000,0.000000,0.0000,0.0000,0.0000,6378155.0000,0.0000,0.0000,0.0000,0.0000,0.0000,0.000,0.000,0.000,0.00000000000,0.00000000000,18.0000,2.205,6378155.0000,0.0000,0.0000,0.0000,0.0000,0.0000,0.000,0.000,0.000,0.00000000000,0.00000000000,18.0000,2.205
247000,6378155.0000,0.0000,0.0000,0.0000,0.0000,0.0000,0.000,0.000,0.000,0.000,0.000,0.000,0.00000000000,0.00000000000,18.0000,0.000000000,0.000000000,0.000000000,0.000000,0.000000,0.000000,0.0000,0.0000,0.0000,6378155.0000,0.0000,0.0000,0.0000,0.0000,0.0000,0.000,0.000,0.000,0.00000000000,0.00000000000,18.0000,2.205,6378155.0000,0.0000,0.0000,0.0000,0.0000,0.0000,0.000,0.000,0.000,0.00000000000,0.00000000000,18.0000,2.205
248000,6378155.0000,0.0000,0.0000,0.0000,0.0000,0.0000,0.000,0.000,0.000,0.000,0.000,0.000,0.00000000000,0.00000000000,18.0000,0.000000000,0.000000000,0.000000000,0.000000,0.000000,0.000000,0.0000,0.0000,0.0000,6378155.0000,0.0000,0.0000,0.0000,0.0000,0.0000,0.000,0.000,0.000,0.00000000000,0.00000000000,18.0000,2.205,6378155.0000,0.0000,0.0000,0.0000,0.0000,0.0000,0.000,0.000,0.000,0.00000000000,0.00000000000,18.0000,2.205
249000,6378155.0000,0.0000,0.0000,0.0000,0.0000,0.0000,0.000,0.000,0.000,0.000,0.000,0.000,0.00000000000,0.00000000000,18.0000,0.000000000,0.000000000,0.000000000,0.000000,0.000000,0.000000,0.0000,0.0000,0.0000,6378155.0000,0.0000,0.0000,0.0000,0.0000,0.0000,0.000,0.000,0.000,0.00000000000,0.00000000000,18.0000,2.205,6378155.0000,0.0000,0.0000,0.0000,0.0000,0.0000,0.000,0.000,0.000,0.00000000000,0.00000000000,18.0000,2.205
250000,6378155.0000,0.0000,0.0000,0.0000,0.0000,0.0000,0.000,0.000,0.000,0.000,0.000,0.000,0.00000000000,0.00000000000,18.0000,0.000000000,0.000000000,0.000000000,0.000000,0.000000,0.000000,0.0000,0.0000,0.0000,6378155.0000,0.0000,0.0000,0.0000,0.0000,0.0000,0.000,0.000,0.000,0.00000000000,0.00000000000,18.0000,2.205,6378155.0000,0.0000,0.0000,0.0000,0.0000,0.0000,0.000,0.000,0.000,0.00000000000,0.00000000000,18.0000,2.205
251000,6378155.0000,0.0000,0.0000,0.0000,0.0000,0.0000,0.000,0.000,0.000,0.000,0.000,0.000,0.00000000000,0.00000000000,18.0000,0.000000000,0.000000000,0.000000000,0.000000,0.000000,0.000000,0.0000,0.0000,0.0000,6378155.0000,0.0000,0.0000,0.0000,0.0000,0.0000,0.000,0.000,0.000,0.00000000000,0.00000000000,18.0000,2.205,6378155.0000,0.0000,0.0000,0.0000,0.0000,0.0000,0.000,0.000,0.000,0.00000000000,0.00000000000,18.0000,2.205
252000,6378155.0000,0.0000,0.0000,0.0000,0.0000,0.0000,0.000,0.000,0.000,0.000,0.000,0.000,0.00000000000,0.00000000000,18.0000,0.000000000,0.000000000,0.000000000,0.000000,0.000000,0.000000,0.0000,0.0000,0.0000,6378155.0000,0.0000,0.0000,0.0000,0.0000,0.0000,0.000,0.000,0.000,0.00000000000,0.00000000000,18.0000,2.205,6378155.0000,0.0000,0.0000,0.0000,0.0000,0.0000,0.000,0.000,0.000,0.00000000000,0.00000000000,18.0000,2.205
253000,6378155.0000,0.0000,0.0000,0.0000,0.0000,0.0000,0.000,0.000,0.000,0.000,0.000,0.000,0.00000000000,0.00000000000,18.0000,0.000000000,0.000000000,0.000000000,0.000000,0.000000,0.000000,0.0000,0.0000,0.0000,6378155.0000,0.0000,0.0000,0.0000,0.0000,0.0000,0.000,0.000,0.000,0.00000000000,0.00000000000,18.0000,2.205,6378155.0000,0.0000,0.0000,0.0000,0.0000,0.0000,0.000,0.000,0.000,0.00000000000,0.00000000000,18.0000,2.205
254000,6378155.0000,0.0000,0.0000,0.0000,0.0000,0.0000,0.000,0.000,0.000,0.000,0.000,0.000,0.00000000000,0.00000000000,18.0000,0.000000000,0.000000000,0.000000000,0.000000,0.000000,0.000000,0.0000,0.0000,0.0000,6378155.0000,0.0000,0.0000,0.0000,0.0000,0.0000,0.000,0.000,0.000,0.00000000000,0.00000000000,18.0000,2.205,6378155.0000,0.0000,0.0000,0.0000,0.0000,0.0000,0.000,0.000,0.000,0.00000000000,0.00000000000,18.0000,2.205
255000,6378155.0000,0.0000,0.0000,0.0000,0.0000,0.0000,0.000,0.000,0.000,0.000,0.000,0.000,0.00000000000,0.00000000000,18.0000,0.000000000,0.000000000,0.000000000,0.000000,0.000000,0.000000,0.0000,0.0000,0.0000,6378155.0000,0.0000,0.0000,0.0000,0.0000,0.0000,0.000,0.000,0.000,0.00000000000,0.00000000000,18.0000,2.205,6378155.0000,0.0000,0.0000,0.0000,0.0000,0.0000,0.000,0.000,0.000,0.00000000000,0.00000000000,18.0000,2.205
256000,6378155.0000,0.0000,0.0000,0.0000,0.0000,0.0000,0.000,0.000,0.000,0.000,0.000,0.000,0.00000000000,0.00000000000,18.0000,0.000000000,0.000000000,0.000000000,0.000000,0.000000,0.000000,0.0000,0.0000,0.0000,6378155.0000,0.0000,0.0000,0.0000,0.0000,0.0000,0.000,0.000,0.000,0.00000000000,0.00000000000,18.0000,2.205,6378155.0000,0.0000,0.0000,0.0000,0.0000,0.0000,0.000,0.000,0.000,0.00000000000,0.00000000000,18.0000,2.205
257000,6378155.0000,0.0000,0.0000,0.0000,0.0000,0.0000,0.000,0.000,0.000,0.000,0.000,0.000,0.00000000000,0.00000000000,18.0000,0.000000000,0.000000000,0.000000000,0.000000,0.000000,0.000000,0.0000,0.0000,0.0000,6378155.0000,0.0000,0.0000,0.0000,0.0000,0.0000,0.000,0.000,0.000,0.00000000000,0.00000000000,18.0000,2.204,6378155.0000,0.0000,0.0000,0.0000,0.0000,0.0000,0.000,0.000,0.000,0.00000000000,0.00000000000,18.0000,2.204
258000,6378155.0000,0.0000,0.0000,0.0000,0.0000,0.0000,0.000,0.000,0.000,0.000,0.000,0.000,0.00000000000,0.00000000000,18.0000,0.000000000,0.000000000,0.000000000,0.000000,0.000000,0.000000,0.0000,0.0000,0.0000,6378155.0000,0.0000,0.0000,0.0000,0.0000,0.0000,0.000,0.000,0.000,0.00000000000,0.00000000000,18.0000,2.204,6378155.0000,0.0000,0.0000,0.0000,0.0000,0.0000,0.000,0.000,0.000,0.00000000000,0.00000000000,18.0000,2.204
259000,6378155.0000,0.0000,0.0000,0.0000,0.0000,0.0000,0.000,0.000,0.000,0.000,0.000,0.000,0.00000000000,0.00000000000,18.0000,0.000000000,0.000000000,0.000000000,0.000000,0.000000,0.000000,0.0000,0.0000,0.0000,6378155.0000,0.0000,0.0000,0.0000,0.0000,0.0000,0.000,0.000,0.000,0.00000000000,0.00000000000,18.0000,2.204,6378155.0000,0.0000,0.0000,0.0000,0.0000,0.0000,0.000,0.000,0.000,0.00000000000,0.00000000000,18.0000,2.204
260000,6378155.0000,0.0000,0.0000,0.0000,0.0000,0.0000,0.000,0.000,0.000,0.000,0.000,0.000,0.00000000000,0.00000000000,18.0000,0.000000000,0.000000000,0.000000000,0.000000,0.000000,0.000000,0.0000,0.0000,0.0000,6378155.0000,0.0000,0.0000,0.0000,0.0000,0.0000,0.000,0.000,0.000,0.00000000000,0.00000000000,18.0000,2.204,6378155.0000,0.0000,0.0000,0.0000,0.0000,0.0000,0.000,0.000,0.000,0.00000000000,0.00000000000,18.0000,2.204
261000,6378155.0000,0.0000,0.0000,0.0000,0.0000,0.0000,0.000,0.000,0.000,0.000,0.000,0.000,0.00000000000,0.00000000000,18.0000,0.000000000,0.000000000,0.000000000,0.000000,0.000000,0.000000,0.0000,0.0000,0.0000,6378155.0000,0.0000,0.0000,0.0000,0.0000,0.0000,0.000,0.000,0.000,0.00000000000,0.00000000000,18.0000,2.204,6378155.0000,0.0000,0.0000,0.0000,0.0000,0.0000,0.000,0.000,0.000,0.00000000000,0.00000000000,18.0000,2.204
262000,6378155.0000,0.0000,0.0000,0.0000,0.0000,0.0000,0.000,0.000,0.000,0.000,0.000,0.000,0.00000000000,0.00000000000,18.0000,0.000000000,0.000000000,0.000000000,0.000000,0.000000,0.000000,0.0000,0.0000,0.0000,6378155.0000,0.0000,0.0000,0.0000,0.0000,0.0000,0.000,0.000,0.000,0.00000000000,0.00000000000,18.0000,2.204,6378155.0000,0.0000,0.0000,0.0000,0.0000,0.0000,0.000,0.000,0.000,0.00000000000,0.00000000000,18.0000,2.204
263000,6378155.0000,0.0000,0.0000,0.0000,0.0000,0.0000,0.000,0.000,0.000,0.000,0.000,0.000,0.00000000000,0.00000000000,18.0000,0.000000000,0.000000000,0.000000000,0.000000,0.000000,0.000000,0.0000,0.0000,0.0000,6378155.0000,0.0000,0.0000,0.0000,0.0000,0.0000,0.000,0.000,0.000,0.00000000000,0.00000000000,18.0000,2.204,6378155.0000,0.0000,0.0000,0.0000,0.0000,0.0000,0.000,0.000,0.000,0.00000000000,0.00000000000,18.0000,2.204
264000,6378155.0000,0.0000,0.0000,0.0000,0.0000,0.0000,0.000,0.000,0.000,0.000,0.000,0.000,0.00000000000,0.00000000000,18.0000,0.000000000,0.000000000,0.000000000,0.000000,0.000000,0.000000,0.0000,0.0000,0.0000,6378155.0000,0.0000,0.0000,0.0000,0.0000,0.0000,0.000,0.000,0.000,0.00000000000,0.00000000000,18.0000,2.204,6378155.0000,0.0000,0.0000,0.0000,0.0000,0.0000,0.000,0.000,0.000,0.00000000000,0.00000000000,18.0000,2.204
265000,6378155.0000,0.0000,0.0000,0.0000,0.0000,0.0000,0.000,0.000,0.000,0.000,0.000,0.000,0.00000000000,0.00000000000,18.0000,0.000000000,0.000000000,0.000000000,0.000000,0.000000,0.000000,0.0000,0.0000,0.0000,6378155.0000,0.0000,0.0000,0.0000,0.0000,0.0000,0.000,0.000,0.000,0.00000000000,0.00000000000,18.0000,2.204,6378155.0000,0.0000,0.0000,0.0000,0.0000,0.0000,0.000,0.000,0.000,0.00000000000,0.00000000000,18.0000,2.204
266000,6378155.0000,0.0000,0.0000,0.0000,0.0000,0.0000,0.000,0.000,0.000,0.000,0.000,0.000,0.00000000000,0.00000000000,18.0000,0.000000000,0.000000000,0.000000000,0.000000,0.000000,0.000000,0.0000,0.0000,0.0000,6378155.0000,0.0000,0.0000,0.0000,0.0000,0.0000,0.000,0.000,0.000,0.00000000000,0.00000000000,18.0000,2.204,6378155.0000,0.0000,0.0000,0.0000,0.0000,0.0000,0.000,0.000,0.000,0.00000000000,0.00000000000,18.0000,2.204
267000,6378155.0000,0.0000,0.0000,0.0000,0.0000,0.0000,0.000,0.000,0.000,0.000,0.000,0.000,0.00000000000,0.00000000000,18.0000,0.000000000,0.000000000,0.000000000,0.000000,0.000000,0.000000,0.0000,0.0000,0.0000,6378155.0000,0.0000,0.0000,0.0000,0.0000,0.0000,0.000,0.000,0.000,0.00000000000,0.00000000000,18.0000,2.204,6378155.0000,0.0000,0.0000,0.0000,0.0000,0.0000,0.000,0.000,0.000,0.00000000000,0.00000000000,18.0000,2.204
268000,6378155.0000,0.0000,0.0000,0.0000,0.0000,0.0000,0.000,0.000,0.000,0.000,0.000,0.000,0.00000000000,0.00000000000,18.0000,0.000000000,0.000000000,0.000000000,0.000000,0.000000,0.000000,0.0000,0.0000,0.0000,6378155.0000,0.0000,0.0000,0.0000,0.0000,0.0000,0.000,0.000,0.000,0.00000000000,0.00000000000,18.0000,2.204,6378155.0000,0.0000,0.0000,0.0000,0.0000,0.0000,0.000,0.000,0.000,0.00000000000,0.00000000000,18.0000,2.204
269000,6378155.0000,0.0000,0.0000,0.0000,0.0000,0.0000,0.000,0.000,0.000,0.000,0.000,0.000,0.00000000000,0.00000000000,18.0000,0.000000000,0.000000000,0.000000000,0.000000,0.000000,0.000000,0.0000,0.0000,0.0000,6378155.0000,0.0000,0.0000,0.0000,0.0000,0.0000,0.000,0.000,0.000,0.00000000000,0.00000000000,18.0000,2.203,6378155.0000,0.0000,0.0000,0.0000,0.0000,0.0000,0.000,0.000,0.000,0.00000000000,0.00000000000,18.0000,2.203
270000,6378155.0000,0.0000,0.0000,0.0000,0.0000,0.0000,0.000,0.000,0.000,0.000,0.000,0.000,0.00000000000,0.00000000000,18.0000,0.000000000,0.000000000,0.000000000,0.000000,0.000000,0.000000,0.0000,0.0000,0.0000,6378155.0000,0.0000,0.0000,0.0000,0.0000,0.0000,0.000,0.000,0.000,0.00000000000,0.00000000000,18.0000,2.203,6378155.0000,0.0000,0.0000,0.0000,0.0000,0.0000,0.000,0.000,0.000,0.00000000000,0.00000000000,18.0000,2.203
271000,6378155.0000,0.0000,0.0000,0.0000,0.0000,0.0000,0.000,0.000,0.000,0.000,0.000,0.000,0.00000000000,0.00000000000,18.0000,0.000000000,0.000000000,0.000000000,0.000000,0.000000,0.000000,0.0000,0.0000,0.0000,6378155.0000,0.0000,0.0000,0.0000,0.0000,0.0000,0.000,0.000,0.000,0.00000000000,0.00000000000,18.0000,2.203,6378155.0000,0.0000,0.0000,0.0000,0.0000,0.0000,0.000,0.000,0.000,0.00000000000,0.00000000000,18.0000,2.203
272000,6378155.0000,0.0000,0.0000,0.0000,0.0000,0.0000,0.000,0.000,0.000,0.000,0.000,0.000,0.00000000000,0.00000000000,18.0000,0.000000000,0.000000000,0.000000000,0.000000,0.000000,0.000000,0.0000,0.0000,0.0000,6378155.0000,0.0000,0.0000,0.0000,0.0000,0.0000,0.000,0.000,0.000,0.00000000000,0.00000000000,18.0000,2.203,6378155.0000,0.0000,0.0000,0.0000,0.0000,0.0000,0.000,0.000,0.000,0.00000000000,0.00000000000,18.0000,2.203
273000,6378155.0000,0.0000,0.0000,0.0000,0.0000,0.0000,0.000,0.000,0.000,0.000,0.000,0.000,0.00000000000,0.00000000000,18.0000,0.000000000,0.000000000,0.000000000,0.000000,0.000000,0.000000,0.0000,0.0000,0.0000,6378155.0000,0.0000,0.0000,0.0000,0.0000,0.0000,0.000,0.000,0.000,0.00000000000,0.00000000000,18.0000,2.203,6378155.0000,0.0000,0.0000,0.0000,0.0000,0.0000,0.000,0.000,0.000,0.00000000000,0.00000000000,18.0000,2.203
274000,6378155.0000,0.0000,0.0000,0.0000,0.0000,0.0000,0.000,0.000,0.000,0.000,0.000,0.000,0.00000000000,0.00000000000,18.0000,0.000000000,0.000000000,0.000000000,0.000000,0.000000,0.000000,0.0000,0.0000,0.0000,6378155.0000,0.0000,0.0000,0.0000,0.0000,0.0000,0.000,0.000,0.000,0.00000000000,0.00000000000,18.0000,2.203,6378155.0000,0.0000,0.0000,0.0000,0.0000,0.0000,0.000,0.000,0.000,0.00000000000,0.00000000000,18.0000,2.203
275000,6378155.0000,0.0000,0.0000,0.0000,0.0000,0.0000,0.000,0.000,0.000,0.000,0.000,0.000,0.00000000000,0.00000000000,18.0000,0.000000000,0.000000000,0.000000000,0.000000,0.000000,0.000000,0.0000,0.0000,0.0000,6378155.0000,0.0000,0.0000,0.0000,0.0000,0.0000,0.000,0.000,0.000,0.00000000000,0.00000000000,18.0000,2.203,6378155.0000,0.0000,0.0000,0.0000,0.0000,0.0000,0.000,0.000,0.000,0.00000000000,0.00000000000,18.0000,2.203
276000,6378155.0000,0.0000,0.0000,0.0000,0.0000,0.0000,0.000,0.000,0.000,0.000,0.000,0.000,0.00000000000,0.00000000000,18.0000,0.000000000,0.000000000,0.000000000,0.000000,0.000000,0.000000,0.0000,0.0000,0.0000,6378155.0000,0.0000,0.0000,0.0000,0.0000,0.0000,0.000,0.000,0.000,0.00000000000,0.00000000000,18.0000,2.203,6378155.0000,0.0000,0.0000,0.0000,0.0000,0.0000,0.000,0.000,0.000,0.00000000000,0.00000000000,18.0000,2.203
277000,6378155.0000,0.0000,0.0000,0.0000,0.0000,0.0000,0.000,0.000,0.000,0.000,0.000,0.000,0.00000000000,0.00000000000,18.0000,0.000000000,0.000000000,0.000000000,0.000000,0.000000,0.000000,0.0000,0.0000,0.0000,6378155.0000,0.0000,0.0000,0.0000,0.0000,0.0000,0.000,0.000,0.000,0.00000000000,0.00000000000,18.0000,2.203,6378155.0000,0.0000,0.0000,0.0000,0.0000,0.0000,0.000,0.000,0.000,0.00000000000,0.00000000000,18.0000,2.203
278000,6378155.0000,0.0000,0.0000,0.0000,0.0000,0.0000,0.000,0.000,0.000,0.000,0.000,0.000,0.00000000000,0.00000000000,18.0000,0.000000000,0.000000000,0.000000000,0.000000,0.000000,0.000000,0.0000,0.0000,0.0000,6378155.0000,0.0000,0.0000,0.0000,0.0000,0.0000,0.000,0.000,0.000,0.00000000000,0.00000000000,18.0000,2.203,6378155.0000,0.0000,0.0000,0.0000,0.0000,0.0000,0.000,0.000,0.000,0.00000000000,0.00000000000,18.0000,2.203
